timestamp_1,fPressureFront_1,fPressureSide_1,acceleration.x_1,acceleration.y_1,acceleration.z_1,quaternion.i_1,quaternion.j_1,quaternion.k_1,quaternion.real_1,timestamp_2,fPressureFront_2,fPressureSide_2,acceleration.x_2,acceleration.y_2,acceleration.z_2,quaternion.i_2,quaternion.j_2,quaternion.k_2,quaternion.real_2
489330,1006.19116,1005.2102,8.558594,2.21875,4.5390625,-0.0579834,-0.51586914,-0.36193848,0.774292,45280.0,1006.43555,1004.93945,-0.07421875,-0.05859375,9.339844,-0.021728516,-0.010864258,0.034423828,0.9990845
489335,1006.2117,1005.16943,0.36328125,0.41796875,10.015625,0.026245117,-0.006652832,-0.14349365,0.9892578,45295.0,1006.4575,1004.95483,1.1523438,0.78125,9.761719,0.028259277,-0.05029297,0.059326172,0.99658203
489350,1006.22925,1005.22314,0.59375,0.53125,9.6328125,0.026916504,-0.0048828125,-0.14141846,0.989563,45310.0,1006.4617,1004.9287,1.0,0.66796875,9.875,0.028503418,-0.050598145,0.059692383,0.996521
489375,1006.22754,1005.2566,0.78515625,0.80078125,9.6328125,0.02709961,-0.003112793,-0.1394043,0.98986816,45330.0,1006.46216,1004.9092,0.8828125,0.70703125,9.7578125,0.028564453,-0.05078125,0.060424805,0.99645996
489390,1006.21265,1005.2195,0.8984375,0.41796875,9.675781,0.026550293,-0.0017089844,-0.13800049,0.99005127,45350.0,1006.4519,1004.9275,0.76953125,0.62890625,9.6015625,0.028320312,-0.051086426,0.061157227,0.9963989
489410,1006.2012,1005.22656,0.6328125,0.53125,9.7109375,0.026062012,-0.0007324219,-0.13708496,0.9902344,45370.0,1006.4553,1004.93994,0.9609375,0.5546875,9.6796875,0.028198242,-0.051452637,0.061462402,0.9963989
489430,1006.1975,1005.1914,0.36328125,0.30078125,9.558594,0.024963379,0.00048828125,-0.13702393,0.9902344,45390.0,1006.4602,1004.928,1.0742188,0.3984375,9.7578125,0.028259277,-0.051818848,0.061645508,0.9963379
489450,1006.2129,1005.22754,0.01953125,0.53125,9.6328125,0.023925781,0.0020141602,-0.13708496,0.9902954,45410.0,1006.4263,1004.89087,1.2304688,0.4375,9.839844,0.028320312,-0.05218506,0.061950684,0.9963379
489470,1006.23145,1005.2063,0.09375,0.1875,9.714844,0.023071289,0.0033569336,-0.13659668,0.99035645,45430.0,1006.4922,1004.9365,1.265625,0.58984375,9.796875,0.028686523,-0.052001953,0.06262207,0.99627686
489495,1006.1726,1005.2117,0.1328125,-0.00390625,10.019531,0.022644043,0.0032958984,-0.13653564,0.99035645,45450.0,1006.4558,1004.9092,1.1132812,0.62890625,9.683594,0.028930664,-0.051635742,0.06311035,0.99627686
489515,1006.2114,1005.21094,0.59375,0.30078125,9.0234375,0.021728516,0.0030517578,-0.13720703,0.9902954,45470.0,1006.42896,1004.9502,0.921875,0.58984375,9.640625,0.02923584,-0.05126953,0.06347656,0.9962158
489530,1006.1748,1005.22144,0.74609375,0.30078125,9.175781,0.020202637,0.0033569336,-0.1383667,0.99017334,45490.0,1006.468,1004.96533,0.80859375,0.74609375,9.4921875,0.029663086,-0.05126953,0.0637207,0.9962158
489550,1006.1987,1005.2046,0.59375,0.26171875,9.136719,0.018737793,0.004333496,-0.1395874,0.99005127,45510.0,1006.4507,1004.95264,0.921875,0.78125,9.5625,0.030029297,-0.051208496,0.06414795,0.9961548
489575,1006.2234,1005.1919,0.36328125,0.41796875,9.410156,0.017028809,0.006286621,-0.14025879,0.9899292,45530.0,1006.48145,1004.9402,1.1132812,0.859375,9.5234375,0.030151367,-0.051086426,0.06439209,0.9961548
489590,1006.23315,1005.2031,0.09375,0.2265625,9.597656,0.016296387,0.008361816,-0.14031982,0.9899292,45550.0,1006.46265,1004.94653,1.1523438,0.78125,9.722656,0.030151367,-0.05102539,0.06427002,0.9961548
489610,1006.1975,1005.2522,0.01953125,0.1875,9.441406,0.016357422,0.010620117,-0.14001465,0.9899292,45570.0,1006.48413,1004.9346,1.0742188,0.70703125,9.761719,0.030456543,-0.05114746,0.0635376,0.9962158
489630,1006.17505,1005.2483,-0.01953125,-0.12109375,9.9375,0.016723633,0.012023926,-0.14025879,0.98986816,45590.0,1006.4658,1004.9324,1.0,0.58984375,9.71875,0.030578613,-0.050964355,0.062805176,0.99627686
489650,1006.19336,1005.2095,-0.05859375,0.53125,9.4375,0.015991211,0.012878418,-0.14196777,0.98968506,45610.0,1006.4265,1004.906,1.0,0.5546875,9.640625,0.030578613,-0.050720215,0.06213379,0.9963379
489675,1006.1987,1005.2434,0.09375,0.4921875,9.4765625,0.014404297,0.014587402,-0.14355469,0.9894409,45630.0,1006.4519,1004.9363,1.0,0.4375,9.683594,0.030273438,-0.050354004,0.061828613,0.9963379
489690,1006.1887,1005.1858,0.0546875,0.33984375,9.75,0.013305664,0.016113281,-0.14453125,0.9892578,45650.0,1006.49585,1004.94946,1.0390625,0.4765625,9.5625,0.030029297,-0.050231934,0.061462402,0.9963989
489715,1006.2041,1005.20605,0.09375,0.53125,9.558594,0.012756348,0.017822266,-0.14471436,0.9892578,45670.0,1006.49097,1004.9392,1.0,0.4765625,9.644531,0.02960205,-0.05029297,0.06072998,0.99645996
489730,1006.18823,1005.2407,-0.01953125,0.37890625,9.8984375,0.012512207,0.019104004,-0.14471436,0.9891968,45690.0,1006.4868,1004.97656,0.921875,0.4375,9.722656,0.02923584,-0.050231934,0.05999756,0.996521
489750,1006.1914,1005.2119,-0.2109375,0.1875,9.824219,0.012329102,0.020507812,-0.14520264,0.98913574,45710.0,1006.4453,1004.9385,0.76953125,0.36328125,9.5625,0.028747559,-0.050109863,0.059265137,0.99658203
489770,1006.21265,1005.2134,-0.44140625,0.1875,10.019531,0.012207031,0.022583008,-0.14538574,0.9890137,45730.0,1006.46924,1004.91235,0.8828125,0.28515625,9.6015625,0.028259277,-0.0501709,0.05883789,0.99658203
489790,1006.2092,1005.2351,-0.55859375,0.1875,10.2421875,0.012268066,0.023498535,-0.14587402,0.98895264,45750.0,1006.43774,1004.92896,1.0,0.28515625,9.6015625,0.027832031,-0.050476074,0.05834961,0.99664307
489810,1006.2212,1005.2073,-0.40234375,0.30078125,9.902344,0.012451172,0.023986816,-0.14654541,0.98883057,45770.0,1006.4353,1004.9712,1.0742188,0.36328125,9.605469,0.027160645,-0.050842285,0.057922363,0.99664307
489840,1006.2163,1005.20044,-0.13671875,0.37890625,10.019531,0.012207031,0.023986816,-0.14764404,0.98864746,45790.0,1006.44824,1004.92163,1.0390625,0.32421875,9.566406,0.026306152,-0.051086426,0.057556152,0.9967041
489850,1006.2212,1005.2075,-0.09765625,0.453125,9.8984375,0.0115356445,0.023986816,-0.14978027,0.9883423,45810.0,1006.45044,1004.9192,1.0,0.24609375,9.6015625,0.02557373,-0.051330566,0.05731201,0.9967041
489870,1006.2134,1005.1797,-0.13671875,0.72265625,9.6328125,0.011474609,0.02532959,-0.15075684,0.9881592,45830.0,1006.46045,1004.9573,1.0742188,0.32421875,9.644531,0.024902344,-0.051879883,0.057128906,0.9967041
489900,1006.2036,1005.21533,-0.25,0.68359375,10.285156,0.012878418,0.026367188,-0.14953613,0.9883423,45850.0,1006.46875,1004.9236,1.1914062,0.3984375,9.875,0.024230957,-0.0524292,0.05670166,0.9967041
489920,1006.19946,1005.23975,-0.2890625,0.76171875,9.8984375,0.013427734,0.026367188,-0.14874268,0.9884033,45870.0,1006.4724,1004.9253,1.1132812,0.515625,9.878906,0.02355957,-0.05267334,0.056274414,0.99676514
489940,1006.23,1005.1929,-0.36328125,0.26171875,10.0546875,0.0126953125,0.026855469,-0.14855957,0.98846436,45890.0,1006.47144,1004.9541,1.0390625,0.515625,9.796875,0.022705078,-0.052856445,0.055725098,0.99676514
489960,1006.1863,1005.20215,-0.48046875,0.03515625,10.175781,0.012207031,0.026245117,-0.14874268,0.98846436,45910.0,1006.49805,1004.9592,0.84765625,0.20703125,9.640625,0.021911621,-0.052978516,0.05480957,0.9968262
489980,1006.1919,1005.1914,-0.44140625,0.03515625,9.75,0.012390137,0.02508545,-0.14868164,0.98846436,45930.0,1006.44604,1004.95215,0.84765625,0.24609375,9.640625,0.02166748,-0.053222656,0.05407715,0.9968872
490005,1006.1836,1005.22437,-0.09765625,0.03515625,9.6328125,0.013183594,0.023742676,-0.1484375,0.9885254,45950.0,1006.4558,1004.947,0.921875,0.36328125,9.605469,0.02154541,-0.053588867,0.053527832,0.9968872
490020,1006.2012,1005.1926,0.0546875,0.109375,9.515625,0.014282227,0.022338867,-0.1484375,0.9885864,45970.0,1006.44507,1004.9612,1.265625,0.515625,9.6015625,0.021362305,-0.05419922,0.05291748,0.9968872
490045,1006.2114,1005.22705,0.2109375,0.26171875,9.292969,0.015075684,0.02166748,-0.14855957,0.9885254,45990.0,1006.43677,1004.9348,1.421875,0.515625,9.7578125,0.0211792,-0.05493164,0.051940918,0.9968872
490060,1006.18677,1005.2224,0.01953125,0.33984375,9.597656,0.015075684,0.022277832,-0.14910889,0.98846436,46010.0,1006.47437,1004.9463,1.34375,0.36328125,9.71875,0.020629883,-0.05529785,0.051086426,0.99694824
490085,1006.1782,1005.1948,-0.2890625,0.2265625,9.824219,0.014953613,0.023132324,-0.14978027,0.9883423,46030.0,1006.4629,1004.91064,1.3046875,0.28515625,9.722656,0.019958496,-0.055541992,0.050354004,0.9970093
490100,1006.2168,1005.19604,-0.40234375,0.1484375,9.8203125,0.015380859,0.022949219,-0.14990234,0.9883423,46050.0,1006.4729,1004.92725,1.1914062,0.20703125,9.722656,0.019714355,-0.055419922,0.049743652,0.9970093
490120,1006.1719,1005.2417,-0.328125,0.30078125,9.675781,0.015808105,0.021972656,-0.14990234,0.9883423,46070.0,1006.45337,1004.9568,1.1132812,0.20703125,9.683594,0.019714355,-0.05529785,0.049194336,0.9970703
490140,1006.19775,1005.22974,-0.01953125,0.41796875,9.214844,0.015625,0.020751953,-0.15057373,0.98828125,46090.0,1006.43384,1004.9385,1.1132812,0.36328125,9.683594,0.019470215,-0.055236816,0.048828125,0.9970703
490160,1006.1697,1005.23804,0.0546875,0.109375,8.988281,0.015625,0.020874023,-0.15112305,0.9881592,46110.0,1006.45776,1004.9343,1.1523438,0.32421875,9.605469,0.019165039,-0.055419922,0.04840088,0.99713135
490180,1006.18286,1005.2263,0.171875,-0.2734375,9.2109375,0.016906738,0.02166748,-0.15136719,0.98809814,46130.0,1006.4658,1004.93604,1.0390625,0.32421875,9.5234375,0.019104004,-0.055603027,0.04711914,0.99713135
490200,1006.1887,1005.22144,0.0546875,0.1484375,9.253906,0.018615723,0.022644043,-0.15246582,0.987854,46150.0,1006.4592,1004.9524,0.8828125,0.28515625,9.4921875,0.019226074,-0.055847168,0.046142578,0.9971924
490220,1006.2178,1005.2151,-0.09765625,0.2265625,9.40625,0.018676758,0.024169922,-0.15454102,0.9874878,46170.0,1006.4475,1004.98267,0.76953125,0.32421875,9.496094,0.01940918,-0.05670166,0.045654297,0.99713135
490240,1006.20483,1005.22437,-0.25,0.33984375,9.671875,0.018737793,0.026062012,-0.1572876,0.98706055,46190.0,1006.4634,1004.9453,1.265625,0.5546875,9.683594,0.019836426,-0.05810547,0.045166016,0.9970703
490260,1006.1992,1005.2346,-0.48046875,0.453125,9.941406,0.01953125,0.027282715,-0.15979004,0.98657227,46210.0,1006.45557,1004.93726,1.421875,0.4765625,9.839844,0.020751953,-0.059570312,0.043945312,0.9970093
490280,1006.20825,1005.2263,-0.48046875,0.72265625,9.8203125,0.01953125,0.027648926,-0.16186523,0.9862671,46230.0,1006.47046,1004.8928,1.4609375,0.4375,9.875,0.022094727,-0.060668945,0.042175293,0.9970093
490300,1006.21216,1005.1775,-0.48046875,0.76171875,9.558594,0.018859863,0.028564453,-0.16448975,0.9857788,46250.0,1006.47314,1004.93896,1.421875,0.4375,9.917969,0.022949219,-0.061157227,0.04083252,0.9970093
490320,1006.21045,1005.21826,-0.36328125,0.953125,9.7109375,0.018493652,0.030090332,-0.16674805,0.98535156,46270.0,1006.4629,1004.94434,1.1523438,0.28515625,9.9140625,0.023986816,-0.061645508,0.039794922,0.9970093
490340,1006.2207,1005.1948,-0.171875,1.1835938,9.714844,0.018615723,0.03149414,-0.16821289,0.9850464,46290.0,1006.46387,1004.92065,1.0742188,0.36328125,9.878906,0.024719238,-0.06225586,0.03881836,0.9970093
490355,1006.1743,1005.2112,-0.2109375,1.0664062,9.753906,0.018676758,0.03277588,-0.16900635,0.9849243,46310.0,1006.47876,1004.95703,1.0,0.24609375,9.8359375,0.025634766,-0.06286621,0.037597656,0.9970093
490375,1006.1741,1005.228,-0.2890625,1.1054688,9.5546875,0.018432617,0.034606934,-0.16912842,0.98480225,46330.0,1006.42944,1004.9219,0.921875,0.3984375,9.875,0.026977539,-0.06341553,0.036193848,0.99694824
490395,1006.2053,1005.1992,-0.55859375,0.68359375,9.9375,0.017944336,0.036499023,-0.16870117,0.98480225,46350.0,1006.47266,1004.9509,0.921875,0.4375,9.878906,0.028564453,-0.06390381,0.03491211,0.99694824
490415,1006.2102,1005.1968,-0.7109375,0.4921875,10.2109375,0.017333984,0.03753662,-0.16851807,0.98480225,46370.0,1006.4802,1004.9209,1.1523438,0.58984375,9.9140625,0.030029297,-0.064453125,0.03375244,0.9968872
490435,1006.1941,1005.1599,-0.82421875,0.6484375,10.214844,0.016174316,0.037902832,-0.16888428,0.98480225,46390.0,1006.4636,1004.9282,1.3828125,0.78125,9.878906,0.030944824,-0.06530762,0.03265381,0.9968262
490460,1006.20605,1005.1992,-0.40234375,0.83984375,9.941406,0.013671875,0.038146973,-0.16931152,0.9847412,46410.0,1006.4785,1004.93384,1.6875,0.70703125,10.144531,0.03137207,-0.065979004,0.03100586,0.9968262
490475,1006.21313,1005.2119,-0.2890625,0.53125,9.863281,0.012329102,0.03857422,-0.1687622,0.98480225,46430.0,1006.48584,1004.9651,1.7265625,0.62890625,10.183594,0.031188965,-0.06604004,0.029724121,0.9968872
490500,1006.23364,1005.2197,-0.2890625,0.26171875,9.8984375,0.011047363,0.039367676,-0.16711426,0.9851074,46450.0,1006.4773,1004.98486,1.6875,0.5546875,10.140625,0.030639648,-0.06561279,0.028869629,0.99694824
490520,1006.2527,1005.17896,-0.59375,-0.3125,10.1328125,0.010681152,0.040161133,-0.16503906,0.9854126,46470.0,1006.4695,1004.9514,1.5351562,0.28515625,9.9453125,0.030212402,-0.06518555,0.027893066,0.9970093
490540,1006.2134,1005.2085,-0.7109375,-0.34765625,10.285156,0.010681152,0.040771484,-0.16363525,0.9855957,46490.0,1006.4475,1004.9536,1.4609375,0.28515625,9.875,0.030761719,-0.0647583,0.026245117,0.9970703
490555,1006.19995,1005.2073,-1.0546875,-0.34765625,10.359375,0.0107421875,0.040893555,-0.16326904,0.98565674,46510.0,1006.4717,1004.96704,1.3828125,0.4375,9.71875,0.031799316,-0.06439209,0.024597168,0.99713135
490575,1006.1907,1005.2051,-1.1679688,-0.12109375,10.019531,0.010498047,0.04095459,-0.16308594,0.9857178,46530.0,1006.4568,1004.9592,1.3828125,0.3984375,9.722656,0.03314209,-0.063964844,0.02331543,0.99713135
490595,1006.2207,1005.2068,-1.0546875,-0.1953125,10.015625,0.009765625,0.039855957,-0.1628418,0.9857788,46550.0,1006.4636,1004.95264,1.265625,0.62890625,9.5234375,0.03491211,-0.06304932,0.022583008,0.99713135
490615,1006.21826,1005.21094,-0.75,-0.12109375,9.675781,0.009155273,0.038146973,-0.16223145,0.9859619,46570.0,1006.4844,1004.95044,1.1914062,0.70703125,9.566406,0.036865234,-0.06188965,0.022155762,0.99713135
490635,1006.1904,1005.23,-0.59375,-0.234375,9.824219,0.009094238,0.035827637,-0.1619873,0.986084,46590.0,1006.45557,1004.9331,1.0390625,1.0117188,9.3359375,0.039001465,-0.06036377,0.021728516,0.9971924
490655,1006.1841,1005.2388,-0.36328125,-0.234375,9.515625,0.008911133,0.03338623,-0.16223145,0.986145,46610.0,1006.46655,1004.9319,0.84765625,1.1640625,9.21875,0.040649414,-0.059509277,0.020996094,0.9971924
490675,1006.1897,1005.2229,-0.13671875,-0.1953125,9.515625,0.008605957,0.030883789,-0.16265869,0.986145,46630.0,1006.43726,1004.98267,0.80859375,1.203125,9.296875,0.04168701,-0.05908203,0.020019531,0.9971924
490695,1006.21875,1005.23315,-0.01953125,-0.04296875,9.328125,0.0078125,0.028503418,-0.16308594,0.986145,46650.0,1006.427,1004.93726,0.84765625,1.203125,9.300781,0.041870117,-0.05883789,0.019165039,0.9971924
490720,1006.1792,1005.22363,-0.01953125,-0.15625,9.097656,0.007507324,0.026733398,-0.16363525,0.986145,46670.0,1006.41455,1004.9509,0.921875,0.9375,9.261719,0.041748047,-0.058898926,0.01776123,0.9972534
490735,1006.2217,1005.19653,-0.05859375,0.03515625,9.027344,0.0072021484,0.026794434,-0.16394043,0.986084,46690.0,1006.43896,1004.9817,1.34375,0.4765625,9.453125,0.041259766,-0.059448242,0.015808105,0.9972534
490755,1006.208,1005.21484,-0.05859375,0.03515625,9.410156,0.0067749023,0.02722168,-0.16436768,0.98602295,46710.0,1006.42773,1004.9658,1.5742188,0.20703125,9.722656,0.040771484,-0.05987549,0.014404297,0.9972534
490780,1006.208,1005.21436,-0.171875,0.2265625,9.3671875,0.006652832,0.027648926,-0.16497803,0.9859009,46730.0,1006.44775,1004.95874,1.6132812,0.015625,9.796875,0.040527344,-0.06011963,0.013427734,0.9972534
490800,1006.20996,1005.2395,-0.09765625,0.1484375,9.515625,0.0064697266,0.028381348,-0.16540527,0.9857788,46755.0,1006.44946,1004.92944,1.3046875,0.4375,9.761719,0.040222168,-0.05999756,0.013000488,0.99731445
490815,1006.21436,1005.19507,-0.13671875,0.0703125,9.675781,0.0064697266,0.028808594,-0.16577148,0.9857178,46770.0,1006.4773,1004.94165,1.1132812,0.5546875,9.796875,0.039855957,-0.059387207,0.012512207,0.9973755
490835,1006.2195,1005.1865,-0.13671875,0.37890625,9.3671875,0.0061035156,0.029418945,-0.16619873,0.98565674,46790.0,1006.44434,1004.9431,0.921875,0.8203125,9.722656,0.03942871,-0.05883789,0.011962891,0.9974365
490855,1006.2124,1005.1992,-0.328125,0.453125,9.6328125,0.005554199,0.030273438,-0.16662598,0.98553467,46810.0,1006.40967,1004.9468,0.8828125,1.1640625,9.640625,0.038391113,-0.058288574,0.011230469,0.99749756
490875,1006.2241,1005.251,-0.55859375,0.33984375,9.753906,0.005493164,0.031311035,-0.16638184,0.98553467,46830.0,1006.4563,1004.938,0.73046875,0.859375,9.4140625,0.03717041,-0.057861328,0.010009766,0.9975586
490895,1006.2302,1005.2593,-0.671875,0.1875,9.902344,0.0052490234,0.031982422,-0.16571045,0.98565674,46850.0,1006.4614,1004.9966,0.6171875,0.4375,9.3359375,0.036376953,-0.057739258,0.008422852,0.9976196
490915,1006.23145,1005.2239,-0.75,-0.234375,10.171875,0.004638672,0.031921387,-0.16583252,0.98565674,46870.0,1006.4502,1004.98145,0.5390625,0.32421875,9.339844,0.036010742,-0.057922363,0.0072631836,0.9976196
490935,1006.199,1005.2146,-0.78515625,0.0703125,9.859375,0.0036010742,0.03137207,-0.16699219,0.98547363,46895.0,1006.4573,1004.9497,1.1523438,0.3984375,9.457031,0.03552246,-0.058776855,0.007019043,0.9976196
490955,1006.2141,1005.1941,-0.6328125,0.33984375,9.753906,0.0029907227,0.03100586,-0.16772461,0.98535156,46910.0,1006.4524,1004.96655,1.265625,0.32421875,9.644531,0.034851074,-0.059814453,0.007019043,0.9975586
490980,1006.16895,1005.20483,-0.171875,0.68359375,9.597656,0.0029907227,0.030151367,-0.16766357,0.98535156,46930.0,1006.4824,1004.9712,1.265625,0.36328125,9.761719,0.034729004,-0.06060791,0.0067749023,0.9975586
491000,1006.1929,1005.22046,0.09375,0.72265625,9.441406,0.0022583008,0.029174805,-0.16705322,0.98553467,46950.0,1006.47485,1004.9729,1.1914062,0.4765625,9.722656,0.034851074,-0.061340332,0.0065307617,0.99749756
491015,1006.1887,1005.22925,0.36328125,0.4921875,9.40625,0.0010986328,0.028320312,-0.16625977,0.98565674,46970.0,1006.5005,1004.96704,0.921875,0.5546875,9.875,0.035095215,-0.062194824,0.006652832,0.9974365
491040,1006.18555,1005.2412,0.2109375,-0.08203125,9.09375,0.00024414062,0.028320312,-0.16497803,0.9859009,46990.0,1006.4429,1004.94995,1.0,0.70703125,9.875,0.035339355,-0.06298828,0.0071411133,0.9973755
491055,1006.2175,1005.2212,-0.13671875,-0.5390625,9.4765625,0.00036621094,0.029846191,-0.1630249,0.986145,47010.0,1006.43335,1004.9634,1.1132812,0.8984375,9.949219,0.035339355,-0.06365967,0.007873535,0.99731445
491075,1006.2136,1005.2571,-0.40234375,-0.578125,9.824219,0.0012207031,0.03161621,-0.16125488,0.98638916,47035.0,1006.4536,1004.94385,1.265625,1.3203125,9.917969,0.03503418,-0.06378174,0.008605957,0.99731445
491095,1006.20996,1005.25024,-0.59375,-0.38671875,9.9765625,0.001159668,0.032409668,-0.1607666,0.9864502,47050.0,1006.4407,1004.90967,1.2304688,1.4335938,9.800781,0.0345459,-0.06335449,0.008728027,0.9973755
491115,1006.2378,1005.21313,-0.44140625,-0.2734375,9.8203125,0.00030517578,0.03265381,-0.16125488,0.98638916,47070.0,1006.4497,1004.9114,1.1914062,1.3945312,9.71875,0.033813477,-0.06286621,0.008056641,0.9974365
491135,1006.23145,1005.21924,-0.171875,-0.3125,9.714844,0.00018310547,0.032836914,-0.16156006,0.9863281,47090.0,1006.42993,1004.95825,1.0742188,1.1289062,9.640625,0.03253174,-0.062438965,0.0072021484,0.99749756
491160,1006.2285,1005.23706,0.01953125,-0.15625,9.515625,0.00030517578,0.033203125,-0.16137695,0.9863281,47110.0,1006.4602,1004.94336,1.0742188,0.5546875,9.453125,0.03100586,-0.06213379,0.0060424805,0.9975586
491180,1006.188,1005.2217,0.28515625,-0.2734375,9.441406,0.00048828125,0.034301758,-0.16125488,0.9863281,47130.0,1006.46436,1004.9592,1.1523438,0.3984375,9.5234375,0.029724121,-0.06225586,0.0049438477,0.9976196
491200,1006.2246,1005.2478,0.171875,-0.34765625,9.515625,0.00079345703,0.0357666,-0.1616211,0.98620605,47150.0,1006.4502,1004.9585,1.34375,0.28515625,9.644531,0.028320312,-0.06262207,0.004333496,0.9976196
491215,1006.1897,1005.2334,-0.171875,-0.42578125,9.7109375,0.0015258789,0.03753662,-0.16253662,0.9859619,47175.0,1006.45776,1004.93115,1.4609375,0.20703125,9.7578125,0.02734375,-0.062561035,0.0041503906,0.99768066
491240,1006.21387,1005.2053,-0.82421875,-0.1953125,10.097656,0.0025634766,0.03942871,-0.16351318,0.9857178,47190.0,1006.4602,1004.9597,1.5351562,0.4765625,9.7578125,0.026916504,-0.062438965,0.004211426,0.99768066
491255,1006.24,1005.2356,-0.86328125,-0.12109375,10.285156,0.0038452148,0.040771484,-0.1642456,0.9855957,47210.0,1006.4839,1004.95215,1.4609375,0.78125,9.878906,0.026367188,-0.062072754,0.0044555664,0.9977417
491275,1006.21924,1005.22095,-1.09375,0.03515625,10.28125,0.0049438477,0.0413208,-0.16503906,0.9854126,47230.0,1006.4807,1004.9346,1.4609375,0.859375,9.878906,0.026306152,-0.061401367,0.004272461,0.9977417
491295,1006.2451,1005.21533,-1.1328125,-0.00390625,10.3203125,0.0057373047,0.041137695,-0.16595459,0.9852905,47250.0,1006.489,1004.9436,1.2304688,1.203125,9.683594,0.026062012,-0.060180664,0.0034179688,0.99786377
491315,1006.21875,1005.2268,-0.86328125,0.26171875,10.0546875,0.006164551,0.040222168,-0.16705322,0.9851074,47270.0,1006.45264,1004.9568,1.1132812,1.28125,9.566406,0.02532959,-0.059143066,0.002319336,0.9979248
491335,1006.20996,1005.219,-0.59375,0.453125,9.6328125,0.0056762695,0.03930664,-0.16796875,0.98498535,47290.0,1006.4353,1004.9319,0.9609375,1.0898438,9.4921875,0.02355957,-0.058532715,0.00079345703,0.99798584
491355,1006.1804,1005.2478,-0.328125,0.33984375,9.480469,0.0045166016,0.038513184,-0.16827393,0.98498535,47315.0,1006.4719,1004.9678,0.9609375,0.20703125,9.4921875,0.02142334,-0.058288574,-0.0008544922,0.9980469
491375,1006.1699,1005.22754,-0.13671875,-0.2734375,9.175781,0.0036621094,0.038269043,-0.16796875,0.9850464,47330.0,1006.4514,1004.9346,0.9609375,-0.05859375,9.644531,0.019226074,-0.058532715,-0.002380371,0.9981079
491395,1006.2461,1005.23535,-0.36328125,-0.6171875,9.171875,0.003540039,0.0390625,-0.16778564,0.9850464,47350.0,1006.47656,1004.9463,0.9609375,-0.0234375,9.71875,0.01751709,-0.05895996,-0.0031738281,0.9981079
491415,1006.22534,1005.2356,-0.55859375,-0.6953125,9.3671875,0.0036010742,0.040649414,-0.16833496,0.9848633,47370.0,1006.47095,1004.96924,1.0390625,-0.05859375,9.7578125,0.01586914,-0.059692383,-0.0038452148,0.9981079
491435,1006.23926,1005.24756,-0.6328125,-0.50390625,9.75,0.0041503906,0.042236328,-0.1697998,0.9845581,47390.0,1006.4707,1004.9634,1.265625,0.09375,10.0234375,0.014282227,-0.060668945,-0.0045776367,0.9980469
491455,1006.2151,1005.2483,-0.59375,-0.1953125,9.675781,0.005065918,0.043640137,-0.17144775,0.9841919,47410.0,1006.4824,1004.9861,1.2304688,0.09375,9.949219,0.013122559,-0.061462402,-0.0051879883,0.99798584
491475,1006.2168,1005.2151,-0.59375,-0.15625,9.753906,0.006225586,0.045288086,-0.17297363,0.9838867,47430.0,1006.4646,1004.98267,1.34375,0.20703125,9.9453125,0.012084961,-0.062561035,-0.0057373047,0.9979248
491500,1006.22974,1005.20557,-0.78515625,-0.2734375,9.941406,0.007751465,0.047668457,-0.17388916,0.98358154,47455.0,1006.47095,1004.95874,1.6132812,0.36328125,10.0625,0.011047363,-0.06378174,-0.0063476562,0.99786377
491515,1006.23926,1005.1924,-1.0546875,-0.2734375,10.246094,0.0095825195,0.050476074,-0.17425537,0.9833374,47470.0,1006.46484,1004.9763,1.8789062,0.4765625,10.027344,0.010192871,-0.06506348,-0.007385254,0.99780273
491535,1006.2268,1005.1948,-1.2070312,-0.234375,10.441406,0.010253906,0.052612305,-0.1749878,0.98309326,47490.0,1006.4531,1004.9785,1.9570312,0.28515625,10.027344,0.009521484,-0.065979004,-0.008850098,0.9977417
491555,1006.2107,1005.21094,-1.3242188,-0.12109375,10.597656,0.010131836,0.05407715,-0.17614746,0.9828491,47510.0,1006.47095,1004.93823,1.9570312,0.0546875,10.0234375,0.009033203,-0.066223145,-0.010437012,0.99768066
491575,1006.2207,1005.2107,-0.9765625,0.1875,10.5546875,0.009887695,0.054748535,-0.17700195,0.982666,47530.0,1006.4426,1004.948,1.3046875,-0.328125,9.984375,0.008850098,-0.065979004,-0.01159668,0.9977417
491595,1006.16943,1005.20215,-0.55859375,0.03515625,10.441406,0.010070801,0.054382324,-0.17718506,0.982605,47550.0,1006.4917,1004.9553,0.9609375,-0.3671875,9.9453125,0.009094238,-0.06585693,-0.012451172,0.99768066
491615,1006.219,1005.2134,-0.2890625,0.2265625,10.015625,0.010192871,0.05328369,-0.1765747,0.9827881,47570.0,1006.4844,1004.9658,0.578125,-0.3671875,10.0625,0.00970459,-0.06573486,-0.012817383,0.99768066
491635,1006.16797,1005.2334,-0.25,0.26171875,9.5546875,0.010803223,0.052124023,-0.17559814,0.9830322,47590.0,1006.4629,1004.95825,0.5,-0.328125,9.9140625,0.010559082,-0.06567383,-0.012390137,0.99768066
491660,1006.19385,1005.21387,-0.40234375,0.33984375,9.597656,0.011474609,0.052001953,-0.17492676,0.9831543,47610.0,1006.4617,1004.95166,1.1523438,-0.3671875,10.1015625,0.01171875,-0.0657959,-0.011352539,0.99768066
491675,1006.20654,1005.1897,-0.671875,0.26171875,9.8203125,0.012145996,0.05218506,-0.17456055,0.9831543,47630.0,1006.47363,1004.9453,1.3828125,-0.25,10.2578125,0.013305664,-0.06549072,-0.010253906,0.9977417
491695,1006.1946,1005.1914,-1.2851562,0.1875,9.792969,0.012268066,0.051757812,-0.17437744,0.98321533,47650.0,1006.52026,1004.9375,1.5742188,0.09375,10.261719,0.015380859,-0.06439209,-0.008911133,0.9977417
491715,1006.19336,1005.21704,-1.5898438,0.03515625,9.859375,0.013061523,0.050842285,-0.17401123,0.9833374,47670.0,1006.4314,1004.9617,1.5351562,0.5546875,9.761719,0.017150879,-0.06225586,-0.0075683594,0.99786377
491735,1006.2107,1005.20605,-1.5898438,0.0703125,9.792969,0.015136719,0.049438477,-0.17333984,0.9835205,47690.0,1006.4512,1004.95215,1.265625,0.58984375,9.457031,0.018676758,-0.059631348,-0.006591797,0.9980469
491760,1006.19165,1005.2063,-1.5898438,0.609375,9.675781,0.016052246,0.047729492,-0.17260742,0.9837036,47710.0,1006.427,1004.928,1.1523438,0.70703125,9.074219,0.020324707,-0.05731201,-0.0056152344,0.9981079
491775,1006.18066,1005.21094,-1.359375,0.41796875,9.7109375,0.015930176,0.04534912,-0.17218018,0.9838867,47730.0,1006.43384,1004.9685,1.0390625,0.8203125,8.9140625,0.02166748,-0.055480957,-0.004638672,0.99823
491795,1006.2114,1005.2246,-1.359375,0.33984375,9.75,0.014892578,0.042785645,-0.17224121,0.9840088,47750.0,1006.4121,1004.98364,0.921875,0.8984375,8.875,0.023254395,-0.05340576,-0.0037231445,0.998291
491820,1006.1987,1005.23535,-1.2851562,0.1484375,9.7109375,0.012817383,0.039489746,-0.17254639,0.98413086,47770.0,1006.44385,1004.9387,1.0,1.0507812,8.761719,0.025024414,-0.052368164,-0.0038452148,0.998291
491835,1006.2085,1005.1858,-0.7109375,-0.00390625,9.4375,0.01184082,0.035583496,-0.17285156,0.9842529,47790.0,1006.4319,1004.91406,1.1523438,1.0507812,9.0703125,0.026367188,-0.05218506,-0.004699707,0.998291
491860,1006.21533,1005.2136,-0.44140625,0.37890625,9.1328125,0.012023926,0.032348633,-0.1729126,0.98431396,47810.0,1006.4375,1004.9509,1.4960938,0.8203125,9.453125,0.027648926,-0.051818848,-0.0049438477,0.998291
491875,1006.1836,1005.19336,-0.2109375,0.4921875,9.1328125,0.012329102,0.02935791,-0.17297363,0.98443604,47830.0,1006.47363,1004.9304,1.6132812,0.74609375,9.4921875,0.028808594,-0.05114746,-0.005126953,0.998291
491895,1006.2102,1005.2156,-0.2109375,0.1484375,9.328125,0.012145996,0.026733398,-0.17303467,0.9844971,47850.0,1006.4536,1004.94946,1.5351562,0.78125,9.6796875,0.030090332,-0.050109863,-0.005554199,0.998291
491915,1006.17456,1005.2217,-0.171875,-0.08203125,9.480469,0.012207031,0.024414062,-0.17272949,0.98461914,47870.0,1006.4236,1004.93604,1.265625,0.8203125,9.761719,0.031311035,-0.04876709,-0.0059814453,0.998291
491935,1006.18384,1005.23413,-0.13671875,-0.234375,9.3671875,0.013122559,0.0211792,-0.17218018,0.9847412,47890.0,1006.4509,1004.9175,0.76953125,0.78125,9.722656,0.032287598,-0.047302246,-0.006713867,0.99835205
491955,1006.16455,1005.21387,0.01953125,-0.04296875,9.2109375,0.015197754,0.018005371,-0.17126465,0.9849243,47910.0,1006.44824,1004.92896,0.65625,0.515625,9.722656,0.033203125,-0.045654297,-0.0076904297,0.99835205
491975,1006.2114,1005.2388,-0.328125,0.2265625,9.136719,0.01751709,0.015258789,-0.1697998,0.9852295,47930.0,1006.46484,1004.9253,0.69140625,0.36328125,9.722656,0.03387451,-0.043395996,-0.008117676,0.9984741
491995,1006.23315,1005.2551,-0.59375,-0.00390625,9.25,0.018920898,0.014221191,-0.16772461,0.98553467,47950.0,1006.4436,1004.93677,1.1523438,0.4375,9.7578125,0.03363037,-0.04095459,-0.006591797,0.9985962
492015,1006.2124,1005.2202,-0.7109375,0.2265625,9.5546875,0.01953125,0.014587402,-0.16607666,0.9857788,47970.0,1006.4429,1004.9746,1.0742188,0.5546875,9.644531,0.033081055,-0.03967285,-0.005126953,0.9986572
492035,1006.21704,1005.2322,-0.36328125,0.1484375,9.9375,0.01940918,0.015136719,-0.16558838,0.9859009,47990.0,1006.45483,1004.9363,0.80859375,0.66796875,9.71875,0.03302002,-0.03918457,-0.0049438477,0.9986572
492055,1006.2129,1005.24,-0.171875,0.1484375,9.859375,0.019042969,0.015319824,-0.1652832,0.9859619,48010.0,1006.44214,1004.92896,0.5390625,0.8203125,9.683594,0.033081055,-0.038879395,-0.005065918,0.9986572
492075,1006.19995,1005.22,0.09375,0.2265625,9.792969,0.019042969,0.015686035,-0.16467285,0.98602295,48030.0,1006.39575,1004.9646,0.38671875,0.8984375,9.683594,0.032714844,-0.03894043,-0.0045776367,0.99871826
492095,1006.1948,1005.19824,0.24609375,0.68359375,9.7109375,0.01928711,0.017211914,-0.16369629,0.986145,48050.0,1006.4226,1004.90894,0.46484375,0.97265625,9.6796875,0.031921387,-0.039489746,-0.0040283203,0.99871826
492115,1006.2241,1005.21313,0.24609375,0.68359375,9.9375,0.01928711,0.018737793,-0.1630249,0.9862671,48070.0,1006.44507,1004.91016,0.578125,0.9375,9.800781,0.03100586,-0.040527344,-0.0040893555,0.99871826
492135,1006.21436,1005.23,0.24609375,0.68359375,9.902344,0.019165039,0.020385742,-0.16229248,0.9863281,48090.0,1006.4446,1004.90405,0.6171875,0.62890625,9.875,0.030151367,-0.041259766,-0.0044555664,0.9986572
492155,1006.22,1005.2031,-0.171875,0.41796875,9.902344,0.018798828,0.022094727,-0.16156006,0.9864502,48110.0,1006.4038,1004.9033,0.5,0.4765625,9.9140625,0.029541016,-0.041137695,-0.0045166016,0.99871826
492175,1006.2051,1005.2041,-0.328125,0.53125,9.863281,0.019348145,0.023498535,-0.16082764,0.98651123,48130.0,1006.4265,1004.926,0.42578125,0.4375,9.8359375,0.02911377,-0.041381836,-0.0043945312,0.99871826
492195,1006.22144,1005.1731,-0.59375,0.72265625,9.980469,0.020202637,0.025024414,-0.16033936,0.98651123,48150.0,1006.4712,1004.92456,0.6171875,0.4375,9.875,0.028869629,-0.042419434,-0.0044555664,0.9986572
492215,1006.2175,1005.17456,-0.9765625,0.9140625,10.09375,0.020263672,0.025939941,-0.1607666,0.9864502,48170.0,1006.43555,1004.9734,0.8828125,0.32421875,10.222656,0.0289917,-0.043273926,-0.004760742,0.9986572
492230,1006.2012,1005.1741,-0.94140625,1.03125,9.8984375,0.01940918,0.025939941,-0.16149902,0.9863281,48190.0,1006.45166,1004.9541,0.84765625,0.3984375,10.21875,0.02947998,-0.04321289,-0.0048828125,0.9985962
492250,1006.1736,1005.18115,-0.7109375,0.80078125,9.863281,0.018798828,0.025146484,-0.16149902,0.98638916,48210.0,1006.44653,1004.9431,0.73046875,0.515625,10.1015625,0.029968262,-0.0423584,-0.004638672,0.9986572
492270,1006.20703,1005.21484,-0.44140625,0.76171875,9.59375,0.01940918,0.024230957,-0.16040039,0.98657227,48230.0,1006.4695,1004.94775,0.84765625,0.62890625,10.066406,0.030334473,-0.041259766,-0.0041503906,0.9986572
492290,1006.16675,1005.2136,0.01953125,0.609375,9.519531,0.020690918,0.02319336,-0.15881348,0.9868164,48250.0,1006.42676,1004.8928,0.69140625,0.62890625,9.984375,0.030761719,-0.03955078,-0.0037231445,0.99871826
492315,1006.20654,1005.2212,0.09375,0.68359375,9.519531,0.021606445,0.022521973,-0.15771484,0.9869995,48270.0,1006.4607,1004.9336,0.5390625,0.74609375,9.8359375,0.031311035,-0.037597656,-0.0036010742,0.9987793
492330,1006.1775,1005.1775,0.01953125,0.609375,9.7890625,0.02178955,0.021911621,-0.15759277,0.9869995,48290.0,1006.4426,1004.968,0.34765625,0.78125,9.71875,0.03161621,-0.035461426,-0.0036010742,0.99884033
492355,1006.17993,1005.2217,-0.2109375,0.68359375,9.7890625,0.02178955,0.02154541,-0.1572876,0.98706055,48310.0,1006.4375,1004.91846,0.34765625,0.5546875,9.6015625,0.031921387,-0.03338623,-0.003540039,0.99890137
492370,1006.2351,1005.18604,-0.25,0.53125,9.9765625,0.021972656,0.021057129,-0.15625,0.98724365,48330.0,1006.4131,1004.9265,0.34765625,0.5546875,9.6015625,0.032226562,-0.031799316,-0.003479004,0.9989624
492390,1006.2053,1005.2095,-0.25,0.53125,9.59375,0.022460938,0.020874023,-0.15411377,0.9875488,48350.0,1006.4348,1004.9404,0.38671875,0.515625,9.527344,0.03253174,-0.030761719,-0.0033569336,0.9989624
492415,1006.18604,1005.2141,-0.36328125,0.0703125,10.015625,0.023254395,0.020874023,-0.15167236,0.98791504,48370.0,1006.43506,1004.9531,0.578125,0.36328125,9.5625,0.03302002,-0.030151367,-0.003479004,0.99902344
492430,1006.19727,1005.17896,-0.6328125,0.03515625,9.980469,0.02355957,0.019958496,-0.15032959,0.9881592,48390.0,1006.44556,1004.937,0.65625,0.28515625,9.5625,0.033996582,-0.02935791,-0.0038452148,0.9989624
492450,1006.19165,1005.1892,-0.671875,-0.00390625,9.824219,0.02355957,0.018371582,-0.14996338,0.9882202,48410.0,1006.44604,1004.91895,0.76953125,0.32421875,9.496094,0.03527832,-0.028747559,-0.0040283203,0.9989624
492470,1006.2024,1005.20776,-0.671875,0.30078125,9.8984375,0.023620605,0.016296387,-0.14996338,0.98828125,48430.0,1006.4697,1004.93896,0.84765625,0.4375,9.605469,0.036376953,-0.028015137,-0.0036010742,0.9989624
492500,1006.22,1005.2053,-0.51953125,0.72265625,9.371094,0.02331543,0.015136719,-0.14923096,0.9884033,48450.0,1006.48364,1004.9404,0.69140625,0.97265625,9.457031,0.03778076,-0.02722168,-0.0030517578,0.99890137
492510,1006.1909,1005.18604,-0.328125,0.4921875,9.75,0.02331543,0.013671875,-0.14770508,0.98864746,48470.0,1006.45483,1004.94727,0.6171875,1.203125,9.417969,0.038513184,-0.026855469,-0.0028686523,0.99890137
492530,1006.2168,1005.208,-0.13671875,0.72265625,9.519531,0.022705078,0.0115356445,-0.14678955,0.98883057,48490.0,1006.4404,1004.91846,0.5390625,1.1640625,9.496094,0.038757324,-0.026672363,-0.0029296875,0.99890137
492550,1006.1929,1005.2053,0.01953125,0.41796875,9.136719,0.021728516,0.010131836,-0.1461792,0.98895264,48510.0,1006.4177,1004.9131,0.65625,0.8984375,9.640625,0.038757324,-0.026550293,-0.0031738281,0.99890137
492570,1006.1836,1005.218,-0.13671875,0.4921875,9.171875,0.02130127,0.009460449,-0.14538574,0.9890747,48530.0,1006.42725,1004.9153,0.84765625,0.9375,9.722656,0.03894043,-0.026733398,-0.0037841797,0.99890137
492590,1006.1914,1005.1948,-0.05859375,0.6484375,9.058594,0.020996094,0.009460449,-0.14398193,0.98931885,48550.0,1006.4717,1004.9514,0.921875,0.78125,9.800781,0.03918457,-0.026916504,-0.004699707,0.99884033
492615,1006.2063,1005.2119,-0.2890625,0.03515625,9.597656,0.020935059,0.00982666,-0.14233398,0.989563,48570.0,1006.4907,1004.92163,0.921875,0.78125,9.800781,0.03967285,-0.026672363,-0.0057373047,0.99884033
492630,1006.1963,1005.2588,-0.328125,-0.04296875,9.519531,0.0211792,0.009765625,-0.14135742,0.98968506,48590.0,1006.4331,1004.9253,0.5390625,0.859375,9.722656,0.040527344,-0.026306152,-0.0068969727,0.9987793
492650,1006.20605,1005.23804,-0.328125,-0.04296875,9.40625,0.021728516,0.00982666,-0.14056396,0.9898071,48610.0,1006.4509,1004.94653,0.38671875,1.0117188,9.722656,0.04144287,-0.026123047,-0.008239746,0.9987793
492675,1006.2009,1005.2322,-0.51953125,0.1875,9.636719,0.021484375,0.010314941,-0.14105225,0.98968506,48630.0,1006.4519,1004.91504,0.46484375,0.9375,9.761719,0.041870117,-0.026367188,-0.009521484,0.99871826
492690,1006.22144,1005.1975,-0.40234375,0.1484375,9.8203125,0.020751953,0.011108398,-0.1418457,0.989624,48655.0,1006.44995,1004.9331,0.73046875,0.32421875,9.9453125,0.042175293,-0.026550293,-0.010803223,0.99871826
492710,1006.19653,1005.2029,-0.2890625,0.26171875,9.8984375,0.020568848,0.011230469,-0.1418457,0.989624,48670.0,1006.4407,1004.949,0.76953125,0.24609375,10.027344,0.04272461,-0.026428223,-0.01184082,0.9986572
492730,1006.22217,1005.22705,-0.13671875,0.26171875,9.863281,0.020446777,0.010864258,-0.14147949,0.98968506,48690.0,1006.43774,1004.8943,0.69140625,0.28515625,10.105469,0.043518066,-0.025817871,-0.012023926,0.9986572
492750,1006.2295,1005.197,-0.09765625,0.37890625,9.902344,0.020385742,0.010925293,-0.14117432,0.98968506,48710.0,1006.43555,1004.91284,0.69140625,0.4765625,9.984375,0.04437256,-0.02508545,-0.012084961,0.9986572
492770,1006.21875,1005.22705,-0.2890625,0.33984375,9.980469,0.019897461,0.011230469,-0.14135742,0.98968506,48730.0,1006.43774,1004.93823,0.5,0.4765625,9.9140625,0.045288086,-0.023986816,-0.012451172,0.9985962
492790,1006.2051,1005.20435,-0.36328125,0.26171875,10.0546875,0.019226074,0.011474609,-0.14160156,0.98968506,48750.0,1006.4668,1004.93945,0.38671875,0.4765625,9.796875,0.046569824,-0.023010254,-0.013122559,0.99853516
492815,1006.19824,1005.22437,-0.171875,0.41796875,10.019531,0.018798828,0.011352539,-0.14129639,0.9897461,48770.0,1006.43164,1004.9463,0.578125,0.62890625,9.644531,0.047790527,-0.022216797,-0.013305664,0.99853516
492830,1006.2173,1005.2202,-0.05859375,0.26171875,9.980469,0.018615723,0.011108398,-0.14031982,0.98986816,48795.0,1006.4563,1004.9243,1.0,0.859375,9.722656,0.048583984,-0.021606445,-0.012878418,0.9984741
492850,1006.20703,1005.23364,-0.171875,0.26171875,9.9375,0.018676758,0.011169434,-0.13916016,0.99005127,48810.0,1006.4314,1004.9053,0.9609375,0.97265625,9.683594,0.049316406,-0.020507812,-0.012451172,0.9984741
492875,1006.23096,1005.19604,-0.59375,0.0703125,10.171875,0.018249512,0.011108398,-0.13897705,0.99005127,48830.0,1006.4475,1004.9387,0.69140625,1.0898438,9.566406,0.050109863,-0.019226074,-0.012573242,0.9984741
492890,1006.2168,1005.23315,-0.6328125,0.1875,10.136719,0.0178833,0.010498047,-0.1394043,0.98999023,48850.0,1006.4287,1004.8799,0.38671875,1.2421875,9.453125,0.050720215,-0.018310547,-0.013061523,0.9984741
492915,1006.1875,1005.2156,-0.55859375,0.2265625,9.941406,0.0178833,0.008972168,-0.13995361,0.9899292,48870.0,1006.4673,1004.9302,0.1953125,1.3203125,9.605469,0.05065918,-0.017700195,-0.013549805,0.9984741
492935,1006.188,1005.1765,-0.171875,0.53125,9.5546875,0.018798828,0.0072631836,-0.14007568,0.9899292,48890.0,1006.42017,1004.9114,0.00390625,1.3203125,9.566406,0.050476074,-0.016906738,-0.014160156,0.9984741
492950,1006.18384,1005.2156,-0.01953125,0.76171875,9.480469,0.020263672,0.0057373047,-0.13995361,0.9899292,48910.0,1006.4343,1004.8994,0.1953125,1.5859375,9.4140625,0.050476074,-0.016052246,-0.015258789,0.9984741
492975,1006.2158,1005.1753,0.24609375,0.83984375,9.441406,0.021362305,0.0045166016,-0.13983154,0.9899292,48935.0,1006.4509,1004.9148,0.5,1.6640625,9.605469,0.050231934,-0.01550293,-0.016601562,0.9984741
492990,1006.18994,1005.20703,0.36328125,0.875,9.25,0.021728516,0.0041503906,-0.13946533,0.98999023,48950.0,1006.42773,1004.9304,0.5,1.6640625,9.761719,0.049621582,-0.0146484375,-0.018249512,0.9984741
493015,1006.1863,1005.20703,0.36328125,0.5703125,9.371094,0.022460938,0.0040283203,-0.13879395,0.99005127,48970.0,1006.4275,1004.89185,0.42578125,1.6640625,9.722656,0.048461914,-0.013549805,-0.019897461,0.99853516
493030,1006.21045,1005.21533,0.1328125,0.4921875,9.2890625,0.023071289,0.004638672,-0.13873291,0.99005127,48990.0,1006.4741,1004.9629,0.26953125,1.5507812,9.566406,0.04650879,-0.012451172,-0.022277832,0.9985962
493050,1006.2324,1005.19775,-0.2890625,0.1875,9.332031,0.023925781,0.006591797,-0.13873291,0.99005127,49010.0,1006.4414,1004.9656,-0.2265625,0.66796875,9.3359375,0.04449463,-0.012084961,-0.025146484,0.9985962
493070,1006.2107,1005.19824,-1.09375,0.26171875,10.015625,0.024963379,0.009094238,-0.13885498,0.9899292,49030.0,1006.4177,1004.9519,-0.2265625,0.58984375,9.300781,0.042663574,-0.012817383,-0.027526855,0.9986572
493090,1006.2329,1005.1846,-1.1328125,0.37890625,10.136719,0.02545166,0.0107421875,-0.14050293,0.98968506,49050.0,1006.406,1004.9404,-0.11328125,0.515625,9.566406,0.041381836,-0.014465332,-0.02935791,0.9985962
493110,1006.17944,1005.1814,-0.90234375,0.4921875,9.9765625,0.024780273,0.011779785,-0.14361572,0.9892578,49075.0,1006.4275,1004.9343,0.578125,0.4765625,9.9453125,0.04046631,-0.016418457,-0.031066895,0.99853516
493140,1006.2014,1005.228,-0.36328125,0.453125,9.75,0.023864746,0.012634277,-0.14678955,0.98876953,49090.0,1006.4575,1004.9502,0.8828125,0.28515625,10.144531,0.040222168,-0.018005371,-0.03277588,0.9984741
493150,1006.176,1005.2112,-0.2109375,0.609375,9.7109375,0.023864746,0.013000488,-0.14868164,0.9885254,49110.0,1006.4226,1004.9424,0.80859375,0.36328125,10.144531,0.04083252,-0.018737793,-0.03387451,0.9984131
493170,1006.17456,1005.19824,0.0546875,0.76171875,9.59375,0.024291992,0.012573242,-0.14923096,0.9884033,49130.0,1006.4634,1004.95215,0.578125,0.62890625,10.0625,0.041625977,-0.019042969,-0.034362793,0.99835205
493190,1006.19214,1005.2344,0.171875,0.875,9.480469,0.024353027,0.0119018555,-0.14916992,0.98846436,49150.0,1006.46924,1004.949,0.30859375,0.78125,9.984375,0.042663574,-0.019226074,-0.03503418,0.998291
493210,1006.21265,1005.21216,0.09375,0.41796875,9.480469,0.024169922,0.011779785,-0.14886475,0.98846436,49170.0,1006.478,1004.9397,0.42578125,1.0507812,9.878906,0.043884277,-0.019165039,-0.0357666,0.99823
493230,1006.19775,1005.2195,-0.05859375,0.1875,9.753906,0.0234375,0.011962891,-0.14904785,0.98846436,49190.0,1006.4487,1004.9468,0.34765625,0.97265625,9.917969,0.045043945,-0.018615723,-0.03643799,0.99816895
493250,1006.18896,1005.1948,-0.171875,0.26171875,9.7109375,0.022521973,0.012023926,-0.14923096,0.98846436,49215.0,1006.4458,1004.91235,0.38671875,1.0117188,9.839844,0.046020508,-0.017700195,-0.037109375,0.9981079
493270,1006.2146,1005.21533,-0.2890625,-0.00390625,9.7109375,0.02178955,0.01171875,-0.14886475,0.9885254,49230.0,1006.44214,1004.92163,0.34765625,0.8203125,9.761719,0.04650879,-0.016723633,-0.03765869,0.9980469
493290,1006.2134,1005.2156,-0.2890625,-0.3125,9.7890625,0.021057129,0.011291504,-0.1484375,0.98864746,49250.0,1006.458,1004.9258,0.34765625,0.8203125,9.640625,0.046813965,-0.015686035,-0.037902832,0.9980469
493310,1006.1953,1005.2495,-0.25,-0.34765625,9.8203125,0.020263672,0.010620117,-0.14898682,0.9885864,49270.0,1006.47095,1004.9563,0.234375,0.70703125,9.527344,0.046813965,-0.014526367,-0.037963867,0.9980469
493330,1006.20557,1005.22266,-0.2109375,-0.15625,9.671875,0.01928711,0.0099487305,-0.1506958,0.9883423,49290.0,1006.4287,1004.9321,0.078125,0.515625,9.417969,0.047302246,-0.01361084,-0.038085938,0.9980469
493350,1006.2041,1005.2466,-0.2109375,0.03515625,9.636719,0.018249512,0.009643555,-0.15252686,0.98809814,49310.0,1006.4768,1004.9426,-0.07421875,0.5546875,9.4140625,0.047790527,-0.013122559,-0.03753662,0.9980469
493370,1006.22876,1005.22266,-0.13671875,0.03515625,9.863281,0.018066406,0.009155273,-0.1538086,0.98791504,49330.0,1006.4614,1004.9375,-0.07421875,0.66796875,9.496094,0.048217773,-0.012878418,-0.036132812,0.9981079
493395,1006.2224,1005.24243,-0.05859375,0.609375,9.7109375,0.018188477,0.008728027,-0.15466309,0.98773193,49355.0,1006.4336,1004.9177,0.15625,0.8984375,9.605469,0.04901123,-0.013122559,-0.0345459,0.9981079
493410,1006.2124,1005.2097,-0.171875,0.53125,9.941406,0.018005371,0.008361816,-0.15533447,0.9876709,49370.0,1006.4573,1004.93823,0.34765625,1.0898438,9.796875,0.050476074,-0.013671875,-0.03326416,0.9981079
493430,1006.2012,1005.2075,-0.2109375,0.53125,10.058594,0.01751709,0.0075683594,-0.1560669,0.9875488,49390.0,1006.4531,1004.9133,0.38671875,1.4335938,9.8359375,0.051940918,-0.01373291,-0.03173828,0.9980469
493450,1006.2007,1005.2261,-0.09765625,0.76171875,9.863281,0.016540527,0.0068969727,-0.15667725,0.9874878,49410.0,1006.4497,1004.93286,0.38671875,1.7421875,9.800781,0.052490234,-0.01373291,-0.029785156,0.9981079
493475,1006.22974,1005.18774,0.1328125,0.68359375,9.558594,0.014953613,0.007080078,-0.15679932,0.9874878,49430.0,1006.4741,1004.9502,0.38671875,1.7773438,9.800781,0.052001953,-0.013916016,-0.028137207,0.99816895
493490,1006.21436,1005.23047,0.171875,0.41796875,9.6328125,0.013977051,0.0076293945,-0.15631104,0.98760986,49450.0,1006.46875,1004.927,0.234375,1.5117188,9.8359375,0.051513672,-0.014160156,-0.027832031,0.99816895
493510,1006.17993,1005.21387,0.171875,0.26171875,9.59375,0.013671875,0.008483887,-0.15545654,0.98773193,49470.0,1006.4773,1004.9136,0.00390625,1.0898438,9.839844,0.051330566,-0.014343262,-0.028442383,0.99816895
493530,1006.19385,1005.2383,-0.328125,0.1484375,9.75,0.014160156,0.010131836,-0.15478516,0.98779297,49495.0,1006.4487,1004.93506,-0.1484375,0.8984375,9.6015625,0.051330566,-0.014892578,-0.028259277,0.99816895
493550,1006.2058,1005.2051,-0.51953125,0.1875,9.941406,0.014892578,0.011413574,-0.15435791,0.987854,49510.0,1006.4541,1004.9363,0.04296875,0.859375,9.6015625,0.051086426,-0.01574707,-0.026977539,0.99823
493570,1006.22485,1005.24805,-0.51953125,0.1484375,9.9375,0.015686035,0.012023926,-0.15368652,0.98791504,49530.0,1006.46655,1004.96484,0.234375,0.78125,9.722656,0.05126953,-0.016540527,-0.025634766,0.99823
493590,1006.19727,1005.2295,-0.2890625,0.2265625,9.753906,0.016906738,0.012023926,-0.152771,0.9880371,49550.0,1006.447,1004.93994,0.234375,0.8984375,9.6796875,0.052246094,-0.016723633,-0.024963379,0.99816895
493610,1006.1846,1005.22363,-0.171875,0.30078125,9.792969,0.018005371,0.012084961,-0.15209961,0.98809814,49570.0,1006.4265,1004.9575,0.15625,1.4726562,9.5625,0.05279541,-0.016540527,-0.024108887,0.99816895
493635,1006.20044,1005.21216,-0.171875,0.41796875,9.7109375,0.018798828,0.012145996,-0.15148926,0.9882202,49590.0,1006.4507,1004.93774,0.34765625,1.5117188,9.566406,0.0524292,-0.016357422,-0.022949219,0.99823
493655,1006.2195,1005.23804,-0.25,0.30078125,9.8203125,0.018920898,0.012390137,-0.15063477,0.9883423,49610.0,1006.45996,1004.92773,0.46484375,1.4335938,9.6015625,0.051696777,-0.016174316,-0.022216797,0.998291
493675,1006.21387,1005.21655,-0.40234375,0.1484375,9.75,0.018798828,0.012390137,-0.1494751,0.9885254,49635.0,1006.4531,1004.9524,0.5,1.0898438,9.375,0.05114746,-0.016296387,-0.022460938,0.998291
493690,1006.20776,1005.22754,-0.36328125,-0.15625,9.671875,0.018493652,0.012268066,-0.14849854,0.98864746,49650.0,1006.44775,1004.9365,0.65625,1.0507812,9.496094,0.05053711,-0.017028809,-0.023071289,0.998291
493710,1006.1985,1005.2588,-0.2890625,-0.3125,9.6328125,0.018615723,0.012329102,-0.14764404,0.98876953,49670.0,1006.43677,1004.93726,0.73046875,0.9375,9.6796875,0.049743652,-0.01763916,-0.023376465,0.99835205
493730,1006.2197,1005.2356,-0.13671875,-0.04296875,9.515625,0.01953125,0.012390137,-0.14733887,0.98883057,49690.0,1006.44604,1004.9109,0.69140625,0.8984375,9.7578125,0.048950195,-0.017944336,-0.02331543,0.99835205
493750,1006.2024,1005.23,-0.05859375,0.2265625,9.410156,0.019836426,0.012329102,-0.14794922,0.9887085,49710.0,1006.4287,1004.9048,0.578125,1.0507812,9.796875,0.048095703,-0.018005371,-0.02331543,0.9984131
493770,1006.1775,1005.21533,-0.05859375,0.41796875,9.292969,0.019226074,0.012573242,-0.14910889,0.9885254,49730.0,1006.45605,1004.94604,0.42578125,1.0898438,9.644531,0.04748535,-0.0178833,-0.023742676,0.9984131
493790,1006.22705,1005.22534,-0.25,0.2265625,9.410156,0.018920898,0.013366699,-0.14984131,0.98846436,49750.0,1006.42725,1004.9617,0.38671875,1.1640625,9.7578125,0.046813965,-0.01776123,-0.024658203,0.9984131
493810,1006.2312,1005.2302,-0.2890625,0.1484375,9.59375,0.019348145,0.013977051,-0.14996338,0.9884033,49770.0,1006.4353,1004.94165,0.42578125,1.203125,9.796875,0.046020508,-0.01751709,-0.025512695,0.9984741
493830,1006.2407,1005.2175,-0.328125,-0.04296875,9.75,0.020446777,0.014343262,-0.1505127,0.98828125,49790.0,1006.44995,1004.9431,0.6171875,1.1289062,9.8359375,0.04498291,-0.016845703,-0.026611328,0.9984741
493850,1006.22656,1005.2258,-0.40234375,0.1875,9.824219,0.021606445,0.014587402,-0.15185547,0.9880371,49810.0,1006.469,1004.9573,0.578125,1.0898438,9.8359375,0.044128418,-0.01586914,-0.028137207,0.9984741
493870,1006.1743,1005.219,-0.2890625,0.453125,9.9765625,0.022399902,0.014831543,-0.15386963,0.98773193,49830.0,1006.4756,1004.94727,0.38671875,1.203125,9.8359375,0.04321289,-0.014709473,-0.029846191,0.99853516
493890,1006.1841,1005.18604,-0.2109375,0.875,9.863281,0.022583008,0.014953613,-0.15588379,0.98742676,49850.0,1006.4673,1004.9165,0.30859375,1.203125,9.640625,0.041381836,-0.01361084,-0.031311035,0.99853516
493910,1006.2197,1005.20605,-0.2109375,0.875,9.8203125,0.022460938,0.015380859,-0.15704346,0.98724365,49870.0,1006.47046,1004.9612,0.234375,0.859375,9.640625,0.039245605,-0.0126953125,-0.032958984,0.9985962
493930,1006.23145,1005.2178,-0.171875,0.26171875,9.9765625,0.022583008,0.015808105,-0.1572876,0.9871826,49890.0,1006.479,1004.9624,-0.03515625,0.62890625,9.527344,0.037475586,-0.012084961,-0.03491211,0.9985962
493950,1006.22485,1005.198,-0.171875,0.109375,9.8984375,0.023010254,0.016357422,-0.15777588,0.98706055,49910.0,1006.4702,1004.9426,-0.11328125,0.3984375,9.839844,0.035888672,-0.0119018555,-0.036743164,0.9985962
493970,1006.21606,1005.24316,-0.2890625,0.109375,9.863281,0.023620605,0.017150879,-0.15899658,0.98687744,49930.0,1006.4829,1004.9602,-0.03515625,0.32421875,9.949219,0.034301758,-0.012512207,-0.038024902,0.9985962
493990,1006.1997,1005.2212,-0.6328125,0.453125,9.9375,0.024536133,0.018432617,-0.1607666,0.98651123,49950.0,1006.4651,1004.9783,0.04296875,0.16796875,9.984375,0.03277588,-0.013427734,-0.03881836,0.9985962
494010,1006.1914,1005.2009,-0.7109375,0.41796875,10.097656,0.02508545,0.01928711,-0.16192627,0.9862671,49970.0,1006.4436,1004.9407,0.078125,0.1328125,9.988281,0.031799316,-0.014282227,-0.03930664,0.9985962
494030,1006.2324,1005.1919,-0.59375,0.37890625,10.0546875,0.02532959,0.01977539,-0.16351318,0.98602295,49990.0,1006.4712,1004.9851,0.078125,0.3984375,9.949219,0.03112793,-0.015258789,-0.03918457,0.9986572
494050,1006.2175,1005.1909,-0.328125,0.875,9.7109375,0.025512695,0.020080566,-0.16540527,0.9857178,50010.0,1006.4346,1004.9458,0.1953125,0.66796875,9.917969,0.030578613,-0.016357422,-0.038146973,0.9986572
494070,1006.2278,1005.21094,-0.2890625,0.9140625,9.6328125,0.025390625,0.020446777,-0.1663208,0.98553467,50030.0,1006.47656,1004.9446,0.234375,0.8203125,9.7578125,0.029724121,-0.017578125,-0.036865234,0.99871826
494090,1006.16895,1005.2085,-0.36328125,0.68359375,9.6328125,0.025268555,0.021118164,-0.16680908,0.9854126,50050.0,1006.45703,1004.9739,0.42578125,0.66796875,9.683594,0.028869629,-0.018859863,-0.036132812,0.9987793
494110,1006.22046,1005.209,-0.7109375,0.5703125,9.714844,0.02532959,0.021606445,-0.16711426,0.98535156,50070.0,1006.4651,1004.9375,0.5,0.515625,9.839844,0.028686523,-0.019714355,-0.036071777,0.99871826
494130,1006.22534,1005.2261,-0.78515625,0.53125,9.7109375,0.024963379,0.02154541,-0.16778564,0.9852905,50090.0,1006.4614,1004.9177,0.5390625,0.5546875,9.796875,0.028869629,-0.020019531,-0.035949707,0.99871826
494145,1006.209,1005.2029,-0.78515625,0.453125,9.7109375,0.024902344,0.021118164,-0.16851807,0.98516846,50110.0,1006.43555,1004.9463,0.5,0.5546875,9.722656,0.02935791,-0.020019531,-0.036254883,0.99871826
494170,1006.20386,1005.2378,-0.86328125,0.41796875,9.597656,0.025756836,0.020751953,-0.16851807,0.98516846,50130.0,1006.4077,1004.9597,0.42578125,0.62890625,9.683594,0.029541016,-0.019897461,-0.0368042,0.9986572
494185,1006.22437,1005.21216,-0.59375,0.6484375,9.4765625,0.026550293,0.020324707,-0.168396,0.98516846,50150.0,1006.4392,1004.9944,0.5390625,0.4765625,9.6015625,0.029296875,-0.01953125,-0.036987305,0.99871826
494205,1006.1902,1005.2141,-0.44140625,0.53125,9.410156,0.026977539,0.019714355,-0.16888428,0.9850464,50170.0,1006.42676,1004.9658,0.6171875,0.4765625,9.5625,0.02911377,-0.018798828,-0.036987305,0.99871826
494225,1006.1975,1005.1758,-0.48046875,0.53125,9.214844,0.027282715,0.01953125,-0.16955566,0.9849243,50190.0,1006.4519,1004.98193,0.65625,0.515625,9.417969,0.0289917,-0.018005371,-0.03729248,0.99871826
494250,1006.19116,1005.2278,-0.671875,0.33984375,9.4765625,0.028076172,0.019897461,-0.17028809,0.98480225,50210.0,1006.48535,1004.9678,0.38671875,0.515625,9.3359375,0.028686523,-0.017700195,-0.037719727,0.99871826
494265,1006.2173,1005.2119,-0.78515625,0.4921875,9.59375,0.029052734,0.020080566,-0.1708374,0.9846802,50230.0,1006.44653,1004.93384,0.26953125,0.4375,9.453125,0.027770996,-0.0178833,-0.037719727,0.99871826
494285,1006.2058,1005.27124,-0.7109375,0.875,9.59375,0.029724121,0.019958496,-0.17193604,0.98443604,50250.0,1006.47974,1004.9707,0.1953125,0.3984375,9.527344,0.026855469,-0.018371582,-0.037597656,0.9987793
494310,1006.1975,1005.20874,-0.36328125,0.875,9.59375,0.029296875,0.020385742,-0.1730957,0.9842529,50270.0,1006.46313,1004.96484,0.15625,0.28515625,9.683594,0.02545166,-0.019348145,-0.03765869,0.9987793
494325,1006.21704,1005.2449,-0.328125,0.6484375,9.59375,0.028747559,0.02130127,-0.17370605,0.98413086,50290.0,1006.4497,1004.96045,0.1953125,0.09375,9.878906,0.024291992,-0.020935059,-0.03753662,0.9987793
494345,1006.2117,1005.25757,-0.2890625,0.37890625,9.5546875,0.028869629,0.022216797,-0.17333984,0.9841919,50310.0,1006.4807,1004.9658,0.26953125,0.16796875,9.9140625,0.0234375,-0.022583008,-0.0368042,0.9987793
494370,1006.2178,1005.22266,-0.2890625,0.33984375,9.480469,0.02923584,0.0234375,-0.17285156,0.9842529,50330.0,1006.4607,1004.95337,0.26953125,0.20703125,9.988281,0.022827148,-0.024169922,-0.03552246,0.99884033
494385,1006.22095,1005.2117,-0.55859375,-0.04296875,9.59375,0.029846191,0.025024414,-0.17266846,0.9841919,50350.0,1006.4768,1004.9426,0.578125,0.70703125,10.144531,0.022705078,-0.025268555,-0.03387451,0.99884033
494405,1006.23804,1005.2141,-0.82421875,-0.1953125,9.824219,0.031066895,0.026306152,-0.17266846,0.98413086,50370.0,1006.4651,1004.927,0.5390625,1.0898438,9.9140625,0.023010254,-0.025634766,-0.032409668,0.99890137
494425,1006.22974,1005.2446,-0.86328125,-0.5390625,9.792969,0.033203125,0.026977539,-0.17254639,0.9840698,50390.0,1006.43506,1004.94116,0.30859375,1.1289062,9.527344,0.02368164,-0.0256958,-0.032104492,0.99890137
494445,1006.228,1005.25195,-0.82421875,-0.88671875,9.5546875,0.037109375,0.026916504,-0.1720581,0.9840088,50410.0,1006.48096,1004.96265,0.04296875,0.859375,9.644531,0.024047852,-0.026672363,-0.03253174,0.99884033
494465,1006.23486,1005.22314,-0.51953125,0.33984375,9.597656,0.041381836,0.027282715,-0.17370605,0.9835205,50430.0,1006.4614,1004.95386,0.15625,0.66796875,9.875,0.023742676,-0.028564453,-0.032348633,0.9987793
494485,1006.20264,1005.208,-0.36328125,1.1445312,9.675781,0.043395996,0.028686523,-0.17810059,0.982666,50450.0,1006.47144,1004.948,0.42578125,0.515625,9.984375,0.022949219,-0.030578613,-0.031982422,0.9987793
494510,1006.19775,1005.18066,-0.48046875,2.0625,9.859375,0.044677734,0.031066895,-0.18249512,0.98168945,50470.0,1006.47925,1004.9236,0.76953125,0.24609375,10.1015625,0.022277832,-0.03253174,-0.032287598,0.99871826
494525,1006.1948,1005.18604,-0.36328125,2.21875,9.9765625,0.04559326,0.032287598,-0.18353271,0.9814453,50490.0,1006.4885,1004.9575,1.0742188,0.1328125,10.066406,0.02178955,-0.033996582,-0.032836914,0.9986572
494545,1006.2158,1005.22095,-0.328125,2.1015625,9.902344,0.045898438,0.033813477,-0.18310547,0.9814453,50510.0,1006.4812,1004.94385,1.0742188,-0.09765625,10.0625,0.02166748,-0.034851074,-0.03289795,0.9985962
494570,1006.20435,1005.1902,-0.671875,1.296875,10.175781,0.045166016,0.035583496,-0.18249512,0.98150635,50530.0,1006.45337,1004.9468,0.8828125,-0.05859375,10.027344,0.02166748,-0.035217285,-0.032348633,0.9985962
494585,1006.19775,1005.2224,-0.86328125,0.9140625,10.2109375,0.043518066,0.037109375,-0.18218994,0.9815674,50555.0,1006.47144,1004.9719,0.46484375,0.3984375,9.8359375,0.021850586,-0.03552246,-0.031555176,0.9986572
494605,1006.2307,1005.2197,-1.015625,0.5703125,10.285156,0.041625977,0.037841797,-0.18206787,0.98168945,50570.0,1006.4497,1004.9424,0.38671875,0.4375,9.839844,0.021972656,-0.035888672,-0.030883789,0.9986572
494630,1006.22095,1005.2627,-1.015625,0.30078125,10.28125,0.04058838,0.03741455,-0.18170166,0.9818115,50590.0,1006.46484,1004.9507,0.38671875,0.4765625,9.796875,0.022338867,-0.036071777,-0.030456543,0.9986572
494645,1006.208,1005.2241,-0.86328125,0.453125,9.9375,0.040405273,0.036071777,-0.18096924,0.9819946,50610.0,1006.4717,1004.9468,0.34765625,0.58984375,9.722656,0.022766113,-0.035827637,-0.029968262,0.9986572
494665,1006.166,1005.2112,-0.6328125,0.68359375,9.75,0.039794922,0.03466797,-0.18084717,0.9821167,50630.0,1006.47266,1004.9675,0.46484375,0.66796875,9.566406,0.02319336,-0.0357666,-0.02947998,0.9986572
494685,1006.2195,1005.21484,-0.48046875,0.76171875,9.6328125,0.038879395,0.033447266,-0.18115234,0.9821167,50650.0,1006.4324,1004.9263,0.5390625,0.70703125,9.6015625,0.023620605,-0.035949707,-0.02935791,0.9986572
494705,1006.2151,1005.1987,-0.328125,1.1054688,9.636719,0.037902832,0.032104492,-0.18133545,0.98217773,50670.0,1006.4509,1004.96533,0.5390625,0.70703125,9.683594,0.023742676,-0.036071777,-0.029174805,0.9986572
494725,1006.1936,1005.2009,-0.40234375,1.1054688,9.5546875,0.036621094,0.030883789,-0.18103027,0.9822998,50695.0,1006.49536,1004.9448,0.65625,0.62890625,9.71875,0.02368164,-0.035949707,-0.028808594,0.9986572
494745,1006.16675,1005.2134,-0.44140625,0.953125,9.671875,0.035217285,0.030029297,-0.17999268,0.982605,50710.0,1006.46094,1004.95703,0.69140625,0.5546875,9.71875,0.023864746,-0.03564453,-0.028625488,0.9986572
494770,1006.24194,1005.2285,-0.6328125,0.37890625,9.792969,0.03326416,0.028564453,-0.17852783,0.9829712,50730.0,1006.43994,1004.9629,0.65625,0.58984375,9.683594,0.024230957,-0.035339355,-0.028625488,0.9986572
494790,1006.2344,1005.2195,-0.671875,0.26171875,9.7109375,0.032409668,0.027526855,-0.17773438,0.9831543,50750.0,1006.4658,1004.95654,0.6171875,0.5546875,9.761719,0.024475098,-0.035339355,-0.028564453,0.9986572
494805,1006.21265,1005.23315,-0.59375,0.33984375,9.671875,0.03137207,0.025878906,-0.17694092,0.98339844,50770.0,1006.47925,1004.9624,0.73046875,0.5546875,9.9453125,0.024658203,-0.035461426,-0.028442383,0.9986572
494830,1006.2073,1005.2283,-0.55859375,0.4921875,9.4765625,0.030334473,0.024353027,-0.17626953,0.98358154,50790.0,1006.4873,1004.93164,0.76953125,0.515625,10.0234375,0.02520752,-0.035217285,-0.028381348,0.9986572
494845,1006.2334,1005.2522,-0.51953125,0.37890625,9.597656,0.0289917,0.023132324,-0.17547607,0.98376465,50810.0,1006.47266,1004.97217,0.578125,0.58984375,9.9140625,0.026062012,-0.034484863,-0.028259277,0.9986572
494865,1006.19775,1005.2234,-0.51953125,0.30078125,9.6328125,0.02746582,0.021606445,-0.17486572,0.98394775,50835.0,1006.4553,1004.9475,0.38671875,0.66796875,9.796875,0.026977539,-0.033569336,-0.027954102,0.9986572
494885,1006.2095,1005.21436,-0.40234375,0.33984375,9.480469,0.026000977,0.020019531,-0.17437744,0.98413086,50850.0,1006.4658,1004.93555,0.38671875,0.74609375,9.796875,0.027709961,-0.032714844,-0.027404785,0.99871826
494905,1006.1997,1005.219,-0.2109375,0.37890625,9.332031,0.024658203,0.018859863,-0.1739502,0.9842529,50870.0,1006.4475,1004.95776,0.38671875,0.74609375,9.761719,0.028076172,-0.031799316,-0.026733398,0.99871826
494925,1006.2178,1005.2356,-0.2890625,0.26171875,9.410156,0.023803711,0.018005371,-0.17346191,0.984375,50890.0,1006.4934,1004.9983,0.46484375,0.62890625,9.761719,0.028747559,-0.030700684,-0.026611328,0.9987793
494945,1006.2063,1005.2114,-0.171875,0.30078125,9.480469,0.02331543,0.01727295,-0.1729126,0.9844971,50910.0,1006.48145,1004.9624,0.42578125,0.515625,9.566406,0.029663086,-0.02935791,-0.026672363,0.9987793
494965,1006.197,1005.2068,0.01953125,0.53125,9.40625,0.022399902,0.016357422,-0.17242432,0.98461914,50930.0,1006.46265,1004.9607,0.42578125,0.515625,9.5234375,0.030395508,-0.027832031,-0.025878906,0.99884033
494985,1006.1963,1005.197,-0.01953125,0.4921875,9.3671875,0.021057129,0.015625,-0.17224121,0.9846802,50950.0,1006.4214,1004.9617,0.46484375,0.515625,9.4921875,0.030944824,-0.026123047,-0.024414062,0.99890137
495005,1006.1931,1005.26025,0.09375,0.33984375,9.371094,0.020019531,0.015014648,-0.17156982,0.9848633,50975.0,1006.4507,1004.9297,0.30859375,0.66796875,9.375,0.031311035,-0.024536133,-0.022888184,0.9989624
495030,1006.2175,1005.2312,0.28515625,0.109375,9.1328125,0.020080566,0.014587402,-0.17034912,0.9850464,50990.0,1006.4321,1004.9348,0.1953125,0.58984375,9.457031,0.031555176,-0.023132324,-0.02166748,0.99902344
495045,1006.2178,1005.18677,0.28515625,0.1484375,9.09375,0.020690918,0.0146484375,-0.16918945,0.9852905,51010.0,1006.4663,1004.9739,0.15625,0.515625,9.457031,0.031921387,-0.02166748,-0.020507812,0.99902344
495065,1006.18945,1005.23584,0.24609375,0.2265625,9.097656,0.020751953,0.015136719,-0.1687622,0.98535156,51030.0,1006.4607,1004.989,0.04296875,0.4375,9.417969,0.032165527,-0.020141602,-0.018859863,0.9990845
495085,1006.1892,1005.22144,0.28515625,0.1484375,9.09375,0.020629883,0.016418457,-0.16906738,0.9852295,51050.0,1006.4431,1004.9536,-0.03515625,0.3984375,9.378906,0.032287598,-0.018981934,-0.016723633,0.9991455
495105,1006.17725,1005.2346,-0.01953125,0.1484375,9.4375,0.021118164,0.018127441,-0.16918945,0.98516846,51070.0,1006.4404,1004.95703,0.04296875,0.4375,9.339844,0.032836914,-0.018127441,-0.014587402,0.99920654
495125,1006.21436,1005.2107,-0.13671875,0.1875,9.558594,0.022399902,0.01928711,-0.16845703,0.9852905,51090.0,1006.4651,1004.9824,0.1171875,0.28515625,9.375,0.034118652,-0.017211914,-0.012878418,0.99920654
495145,1006.198,1005.21655,-0.25,0.1484375,9.6328125,0.024719238,0.020019531,-0.16748047,0.98535156,51115.0,1006.437,1004.93604,0.15625,0.515625,9.261719,0.036254883,-0.016052246,-0.010986328,0.9991455
495165,1006.2029,1005.2012,-0.51953125,0.30078125,9.75,0.027404785,0.020324707,-0.16693115,0.98535156,51130.0,1006.4448,1004.96265,0.04296875,0.58984375,9.339844,0.038879395,-0.014404297,-0.008178711,0.9990845
495185,1006.22534,1005.2207,-0.55859375,0.68359375,9.8203125,0.030517578,0.019714355,-0.1665039,0.98535156,51150.0,1006.4524,1004.96387,0.04296875,0.859375,9.375,0.042175293,-0.012451172,-0.005126953,0.99902344
495205,1006.2422,1005.1987,-0.40234375,0.83984375,9.8984375,0.03479004,0.01751709,-0.16503906,0.98553467,51170.0,1006.44946,1004.9326,-0.1875,1.203125,9.496094,0.04650879,-0.010009766,-0.0026855469,0.99884033
495225,1006.2175,1005.18164,0.09375,1.3359375,9.75,0.039733887,0.01373291,-0.16271973,0.9857788,51190.0,1006.4153,1004.90234,-0.49609375,1.6640625,9.261719,0.051513672,-0.0071411133,-0.0012817383,0.9986572
495245,1006.2258,1005.1948,0.2109375,1.375,9.7890625,0.045166016,0.009094238,-0.16015625,0.98602295,51210.0,1006.45557,1004.937,-0.83984375,1.703125,9.113281,0.057678223,-0.0044555664,-0.0012817383,0.99835205
495265,1006.2178,1005.21533,0.36328125,1.375,9.863281,0.053833008,0.0031738281,-0.15649414,0.98620605,51230.0,1006.45264,1004.93896,-0.91796875,2.046875,9.21875,0.06500244,-0.0021362305,-0.002380371,0.99786377
495290,1006.20776,1005.18286,1.015625,0.9140625,9.753906,0.06976318,-0.004272461,-0.15130615,0.98602295,51255.0,1006.4402,1004.90063,-0.72265625,2.7382812,9.339844,0.07318115,6.1035156e-05,-0.0044555664,0.99731445
495305,1006.2224,1005.1477,1.4335938,1.3359375,9.480469,0.09979248,-0.0138549805,-0.14465332,0.98431396,51270.0,1006.47,1004.94116,-0.87890625,2.7382812,9.6796875,0.08355713,0.0015258789,-0.008117676,0.99645996
495330,1006.18677,1005.1245,1.7421875,1.6796875,9.7109375,0.14190674,-0.024902344,-0.13830566,0.9798584,51290.0,1006.4822,1004.8967,-0.80078125,2.8515625,9.875,0.099487305,0.0020141602,-0.012939453,0.9949341
495345,1006.15674,1005.103,2.0117188,2.7539062,9.863281,0.19885254,-0.03955078,-0.1307373,0.970459,51310.0,1006.46313,1004.92017,-0.53125,2.6992188,9.6796875,0.12036133,0.0007324219,-0.018737793,0.9925537
495365,1006.14624,1004.79956,0.9375,3.9023438,7.8398438,0.27685547,-0.06274414,-0.11602783,0.9517822,51330.0,1006.4695,1004.8804,0.234375,2.9296875,9.71875,0.14483643,-0.0009765625,-0.02532959,0.98913574
495390,1006.0925,1004.7671,1.015625,4.4023438,7.03125,0.3562622,-0.085632324,-0.09680176,0.92541504,51350.0,1006.4468,1004.88696,0.1171875,2.8125,9.984375,0.17468262,-0.0020751953,-0.031982422,0.98413086
495405,1006.0637,1005.124,1.28125,5.8164062,6.3007812,0.44885254,-0.11340332,-0.069885254,0.88360596,51370.0,1006.4104,1004.52,-0.03515625,2.8125,9.035156,0.21282959,-0.0014648438,-0.038757324,0.97631836
495430,1005.9929,1006.1018,0.74609375,6.5117188,3.9257812,0.53167725,-0.14154053,-0.044067383,0.83392334,51395.0,1006.3833,1004.865,-0.53125,3.8867188,7.6132812,0.2579956,-0.00030517578,-0.043884277,0.9651489
495450,1005.9922,1006.55835,0.6328125,6.0078125,2.7382812,0.6096802,-0.16815186,-0.024536133,0.77423096,51415.0,1006.36206,1004.93604,-0.91796875,4.1914062,7.0429688,0.3086548,-0.00030517578,-0.04626465,0.95007324
495465,1005.9392,1006.94604,0.859375,6.3515625,0.78515625,0.6773071,-0.18884277,-0.016418457,0.71087646,51430.0,1006.3628,1005.05664,-1.109375,5.2265625,6.2773438,0.36291504,-0.0030517578,-0.046081543,0.93066406
495490,1005.91187,1007.5764,3.0078125,7.734375,-3.0078125,0.73327637,-0.20214844,-0.021728516,0.6488037,51450.0,1006.3013,1005.5459,-0.953125,5.8359375,5.546875,0.4138794,-0.009643555,-0.044128418,0.9091797
495505,1005.8606,1007.98145,4.1953125,8.503906,-4.921875,0.77838135,-0.20733643,-0.037597656,0.5913696,51470.0,1006.2588,1005.8052,0.00390625,6.984375,4.28125,0.46038818,-0.021057129,-0.04083252,0.88653564
495530,1005.85376,1008.36206,4.6132812,8.921875,-5.9960938,0.80700684,-0.20166016,-0.06060791,0.5517578,51490.0,1006.24585,1006.4392,0.42578125,7.140625,4.0117188,0.5046997,-0.03729248,-0.035583496,0.8617554
495550,1005.84595,1008.5989,2.546875,8.003906,-5.9960938,0.8240967,-0.18475342,-0.089782715,0.5279541,51510.0,1006.25073,1006.85156,0.6171875,7.2617188,3.4765625,0.543396,-0.056518555,-0.027648926,0.83709717
495565,1005.86694,1008.66113,0.2109375,7.4257812,-5.9960938,0.83343506,-0.15765381,-0.11981201,0.5159912,51535.0,1006.2302,1007.2739,1.1523438,8.027344,2.8632812,0.576416,-0.08081055,-0.01550293,0.8129883
495590,1006.11426,1009.00903,-1.2070312,7.3867188,-5.421875,0.8413696,-0.12384033,-0.14300537,0.5062866,51555.0,1006.28564,1007.6543,1.4609375,8.2109375,3.0546875,0.59936523,-0.109802246,0.00079345703,0.7929077
495605,1006.74634,1009.2251,-2.703125,7.1210938,-4.234375,0.85150146,-0.08679199,-0.15844727,0.49224854,51570.0,1006.2827,1007.7993,1.34375,8.1328125,3.015625,0.6138916,-0.14257812,0.020019531,0.77612305
495625,1007.52954,1009.5032,-4.1953125,7.5039062,-2.8554688,0.86279297,-0.04949951,-0.16729736,0.47454834,51590.0,1006.24243,1007.94214,1.265625,8.1328125,2.6328125,0.62286377,-0.17541504,0.038208008,0.7614746
495655,1008.9258,1010.13745,-4.6953125,7.2773438,-2.6992188,0.87213135,-0.020446777,-0.17163086,0.45770264,51620.0,1006.2578,1008.479,1.4609375,6.640625,2.2109375,0.6291504,-0.20507812,0.053833008,0.74780273
495665,1009.55493,1010.57324,-4.2734375,7.3867188,-2.7773438,0.8808594,0.009521484,-0.1762085,0.43927002,51630.0,1006.229,1009.00073,1.3828125,6.296875,2.2109375,0.6352539,-0.2333374,0.06829834,0.7330322
495685,1010.4951,1011.3445,-4.1953125,6.0859375,-3.7734375,0.888855,0.03778076,-0.18371582,0.4180298,51650.0,1006.2766,1010.16064,2.4921875,5.9921875,1.8671875,0.6419678,-0.2607422,0.08404541,0.7161255
495705,1011.1116,1011.74097,-4.3867188,5.4726562,-4.3476562,0.8954468,0.056884766,-0.19421387,0.3965454,51670.0,1008.28516,1010.7046,4.21875,5.8007812,1.5234375,0.6502075,-0.2854004,0.10510254,0.696228
495725,1011.74316,1012.6648,-3.890625,5.8164062,-5.3828125,0.90093994,0.07342529,-0.2097168,0.37280273,51700.0,1010.1011,1011.9834,4.21875,6.640625,-0.27734375,0.6591797,-0.3076172,0.13085938,0.673645
495745,1012.3779,1013.18286,-3.8125,5.359375,-6.8398438,0.9038696,0.088378906,-0.22808838,0.35101318,51710.0,1011.15894,1012.15405,4.0625,7.1445312,-1.65625,0.6670532,-0.3293457,0.15246582,0.65063477
495765,1013.63086,1014.0012,-3.6210938,5.703125,-6.5351562,0.90301514,0.10620117,-0.2477417,0.3345337,51730.0,1011.6616,1012.5371,5.0976562,8.25,-1.734375,0.6724243,-0.35430908,0.1665039,0.6281738
495785,1014.4675,1014.365,-4.1953125,5.0117188,-5.6484375,0.89819336,0.128479,-0.2668457,0.32489014,51760.0,1014.0891,1014.1592,5.40625,5.453125,-2.2304688,0.6798706,-0.3772583,0.17626953,0.60369873
495805,1016.57446,1015.51953,-4.65625,4.9414062,-4.6914062,0.89086914,0.15252686,-0.28649902,0.31781006,51770.0,1014.0891,1014.1592,5.1757812,5.3359375,-2.921875,0.6923828,-0.39379883,0.18774414,0.57470703
495825,1018.0332,1016.3513,-3.0078125,3.40625,-3.2382812,0.8812866,0.17919922,-0.30932617,0.30908203,51790.0,1016.2798,1016.0676,4.9101562,4.5351562,-3.3046875,0.70654297,-0.40563965,0.20220947,0.54345703
495845,1020.1553,1017.0867,-3.046875,2.0273438,-3.0820312,0.8718872,0.20367432,-0.32611084,0.30340576,51810.0,1017.3992,1017.1362,4.8710938,4.3828125,-3.609375,0.7178955,-0.41607666,0.2189331,0.51342773
495865,1021.5217,1018.7224,-4.3476562,1.5664062,-3.8125,0.8592529,0.23669434,-0.3413086,0.29852295,51840.0,1020.8252,1019.0984,4.9882812,3.8085938,-4.375,0.7253418,-0.42803955,0.2355957,0.48498535
495895,1024.229,1020.6455,-6.7578125,1.3359375,-4.3085938,0.8474121,0.27166748,-0.35266113,0.2892456,51850.0,1020.8252,1019.0984,5.5976562,3.9257812,-4.453125,0.7293701,-0.44299316,0.25109863,0.45684814
495905,1026.1829,1021.4158,-7.6054688,2.828125,-3.9257812,0.8339844,0.30895996,-0.36505127,0.27526855,51870.0,1024.3479,1020.9514,6.0195312,3.6953125,-4.03125,0.7294922,-0.4578247,0.26782227,0.43188477
495925,1029.008,1022.6804,-7.8789062,2.1796875,-3.734375,0.82385254,0.33251953,-0.37652588,0.26257324,51900.0,1026.6475,1022.87476,5.328125,2.3164062,-3.6875,0.7302246,-0.46728516,0.28601074,0.4081421
495950,1030.4929,1025.3237,-6.2265625,0.83984375,-4.6171875,0.8121338,0.3550415,-0.3944702,0.24249268,51910.0,1027.6023,1024.2683,4.4453125,1.8554688,-4.109375,0.7348633,-0.46832275,0.30639648,0.38305664
495970,1032.7778,1028.531,-6.6484375,0.53125,-5.7265625,0.8049927,0.36749268,-0.40789795,0.22479248,51930.0,1030.1931,1025.7253,4.0273438,1.6640625,-3.9570312,0.74224854,-0.46411133,0.3270874,0.35595703
495985,1033.5854,1030.0154,-7.296875,0.03515625,-7.0664062,0.79901123,0.37774658,-0.42156982,0.20275879,51950.0,1031.4597,1027.4739,4.3710938,1.5117188,-4.4921875,0.74993896,-0.45812988,0.34643555,0.328125
496005,1036.061,1031.7588,-7.03125,1.296875,-7.3007812,0.7952881,0.38311768,-0.43237305,0.18371582,51975.0,1034.4077,1031.4446,5.3671875,0.62890625,-5.7226562,0.7567749,-0.4498291,0.369812,0.29693604
496020,1037.0325,1033.3215,-6.4570312,1.6796875,-7.4179688,0.7913208,0.3843994,-0.442688,0.17340088,51990.0,1035.5923,1033.1777,6.6679688,0.66796875,-6.75,0.75946045,-0.4449463,0.38220215,0.28125
496045,1038.459,1037.0085,-6.8398438,1.1445312,-7.9453125,0.7889404,0.38391113,-0.44848633,0.17022705,52010.0,1037.5186,1034.1489,7.0898438,2.2773438,-7.7148438,0.7620239,-0.4399414,0.39196777,0.26861572
496060,1040.5518,1038.5979,-7.03125,1.2578125,-8.4453125,0.79089355,0.3814087,-0.44799805,0.16827393,52030.0,1038.1963,1036.9885,5.75,1.703125,-8.058594,0.7633667,-0.43597412,0.3959961,0.26531982
496080,1041.9827,1040.241,-7.1835938,0.875,-8.832031,0.7989502,0.3727417,-0.44433594,0.15917969,52050.0,1041.1484,1038.3645,6.09375,2.7734375,-8.7421875,0.76904297,-0.43029785,0.3949585,0.25958252
496115,1047.8904,1042.4719,-6.609375,2.21875,-7.1796875,0.81207275,0.35638428,-0.43927002,0.14337158,52070.0,1043.1206,1041.7124,6.4023438,4.0390625,-8.1640625,0.77838135,-0.42596436,0.38641357,0.25177002
496120,1047.8904,1044.1443,-5.4609375,4.4765625,-6.3789062,0.82702637,0.3390503,-0.42895508,0.1303711,52090.0,1045.9614,1043.748,6.6289062,4.34375,-7.4765625,0.78845215,-0.4234619,0.37109375,0.24768066
496150,1050.9651,1047.5447,-4.3867188,5.2070312,-7.71875,0.8423462,0.32659912,-0.4078369,0.13232422,52115.0,1050.2922,1045.8167,6.5546875,5.6484375,-6.3671875,0.79833984,-0.42279053,0.34594727,0.25341797
496160,1052.7124,1048.562,-5.421875,4.0195312,-7.6445312,0.8557129,0.31555176,-0.38708496,0.13568115,52130.0,1052.3835,1048.1294,6.2851562,4.3085938,-6.40625,0.8031006,-0.42333984,0.32751465,0.2617798
496185,1056.6653,1050.8352,-4.7695312,3.2148438,-6.8007812,0.87371826,0.29449463,-0.3640747,0.1315918,52150.0,1054.1658,1049.625,5.5585938,3.234375,-6.2890625,0.8112793,-0.42144775,0.3031006,0.269104
496205,1059.9165,1052.6975,-3.6210938,4.8984375,-7.1796875,0.8932495,0.2659912,-0.34161377,0.120910645,52175.0,1056.4231,1052.75,5.1367188,5.8007812,-7.0585938,0.82403564,-0.41503906,0.2738037,0.27148438
496220,1061.2363,1054.112,-3.6992188,5.1289062,-8.6015625,0.91137695,0.23840332,-0.31549072,0.11401367,52200.0,1060.0732,1053.7524,6.09375,7.984375,-8.78125,0.82922363,-0.4128418,0.25341797,0.27874756
496240,1062.5186,1056.3748,-2.4335938,5.4335938,-10.6640625,0.92767334,0.21252441,-0.28588867,0.1116333,52210.0,1061.5461,1055.073,5.5976562,9.441406,-9.667969,0.8312378,-0.4124756,0.2243042,0.2977295
496265,1065.6685,1059.3604,-2.8554688,5.28125,-12.046875,0.9439087,0.18426514,-0.25146484,0.109069824,52230.0,1061.9829,1058.4565,6.2851562,8.980469,-10.8515625,0.8321533,-0.4102173,0.19134521,0.3203125
496280,1067.6782,1059.2136,-3.046875,6.1992188,-14.082031,0.9595947,0.1541748,-0.21014404,0.10626221,52250.0,1065.19,1056.3391,8.125,10.511719,-11.925781,0.8353882,-0.40441895,0.15228271,0.33966064
496305,1070.6208,1060.8833,-3.046875,7.5039062,-16.566406,0.9717407,0.12927246,-0.1651001,0.1083374,52270.0,1067.1533,1058.0264,9.425781,11.546875,-13.1484375,0.83880615,-0.3942871,0.11254883,0.35821533
496320,1071.3992,1063.6572,-3.8125,7.8476562,-17.0625,0.9803467,0.10992432,-0.11260986,0.11920166,52290.0,1066.5857,1059.7874,9.734375,12.621094,-13.457031,0.8408203,-0.3786621,0.07122803,0.38031006
496345,1072.9893,1064.9824,-3.5078125,5.625,-17.683594,0.98553467,0.09362793,-0.059509277,0.12823486,52315.0,1066.9812,1062.5464,9.234375,11.660156,-13.035156,0.84124756,-0.35394287,0.024780273,0.40802002
496360,1073.8359,1068.3223,-2.8164062,5.28125,-18.75,0.9881592,0.07775879,-0.0078125,0.13208008,52340.0,1067.5376,1070.8665,8.699219,10.207031,-13.3359375,0.84381104,-0.33428955,-0.0064697266,0.4197998
496385,1074.8372,1069.0195,-1.78125,4.8203125,-18.25,0.9881592,0.06518555,0.041931152,0.13232422,52355.0,1068.4524,1065.7051,7.0507812,10.3984375,-11.6875,0.8517456,-0.3043213,-0.0491333,0.42364502
496405,1074.7871,1070.614,-1.359375,4.8203125,-17.023438,0.9864502,0.051940918,0.09008789,0.12689209,52370.0,1068.3276,1068.0532,7.28125,11.4296875,-10.46875,0.8588257,-0.274292,-0.09069824,0.42303467
496420,1075.1304,1070.5134,0.32421875,5.1289062,-16.566406,0.98291016,0.033691406,0.13641357,0.118896484,52395.0,1066.3696,1065.168,5.2148438,8.980469,-9.667969,0.8640137,-0.24060059,-0.1338501,0.42156982
496445,1074.8755,1069.6716,2.2382812,4.5546875,-16.257812,0.97772217,0.011413574,0.17956543,0.1083374,52410.0,1065.9182,1066.1929,3.03125,8.40625,-10.433594,0.8685303,-0.21960449,-0.15704346,0.41571045
496465,1074.332,1070.0786,3.3515625,1.8710938,-14.121094,0.9711304,-0.0099487305,0.21917725,0.093933105,52430.0,1065.2283,1064.4324,2.7226562,8.519531,-10.046875,0.8755493,-0.19598389,-0.18444824,0.40124512
496480,1072.9099,1072.0383,4.84375,1.1835938,-13.9609375,0.9647217,-0.026000977,0.25164795,0.07299805,52455.0,1066.1646,1064.519,-0.76171875,5.8398438,-8.3984375,0.8856201,-0.17236328,-0.21618652,0.3731079
496500,1072.1455,1069.6841,5.34375,1.1054688,-14.730469,0.95758057,-0.03540039,0.28063965,0.055236816,52480.0,1068.2026,1064.3542,-1.71875,3.8085938,-6.6367188,0.8939209,-0.16192627,-0.23583984,0.34503174
496520,1072.2986,1067.9937,5.4960938,1.7578125,-14.8828125,0.9481201,-0.043029785,0.31207275,0.04272461,52490.0,1068.2026,1064.6099,-3.5585938,1.4726562,-5.5234375,0.9059448,-0.15338135,-0.2616577,0.29534912
496540,1072.4941,1067.1458,4.7695312,1.9882812,-10.09375,0.9375,-0.051330566,0.34295654,0.029541016,52510.0,1068.2996,1064.8379,-5.1640625,1.5859375,-4.7226562,0.91448975,-0.14904785,-0.2878418,0.24206543
496560,1073.1597,1065.6663,5.6484375,1.2226562,-7.6445312,0.92614746,-0.06060791,0.37200928,0.014221191,52530.0,1068.6003,1062.1538,-5.9726562,0.24609375,-5.0664062,0.92071533,-0.1449585,-0.3076172,0.19152832
496580,1073.3333,1065.1104,5.3828125,1.9492188,-4.8085938,0.9139404,-0.07159424,0.39953613,0.0005493164,52550.0,1067.8877,1061.4395,-6.46875,0.36328125,-5.4101562,0.92626953,-0.14196777,-0.31750488,0.14501953
496605,1073.1584,1066.0764,6.3359375,0.875,-1.3203125,-0.90319824,0.08203125,-0.42095947,0.016479492,52570.0,1068.3586,1060.5623,-7.7734375,0.09375,-6.1757812,0.93151855,-0.14099121,-0.31915283,0.10290527
496620,1071.8301,1070.2407,6.1796875,0.37890625,-1.2460938,-0.89538574,0.09008789,-0.43481445,0.032592773,52595.0,1067.5913,1057.4888,-11.1796875,-2.8554688,-5.71875,0.93518066,-0.14141846,-0.3171997,0.06933594
496645,1073.356,1072.8577,6.4140625,-0.734375,-1.7421875,-0.887146,0.092041016,-0.45092773,0.034423828,52620.0,1060.5437,1055.4426,-11.3359375,-2.5117188,-7.8632812,0.9362793,-0.1437378,-0.31799316,0.039733887
496665,1073.2004,1071.3625,8.171875,-6.4023438,1.1289062,-0.8835449,0.08227539,-0.4609375,0.008056641,52630.0,1060.9756,1055.4426,-12.2890625,-0.98046875,-7.9765625,0.9347534,-0.15161133,-0.31988525,0.031188965
496680,1073.5334,1063.53,10.203125,-2.7226562,1.8203125,-0.8918457,0.06707764,-0.44732666,0.0005493164,52650.0,1067.3613,1053.6643,-8.808594,-1.2851562,-6.1367188,0.9316406,-0.16290283,-0.32354736,0.029785156
496700,1073.541,1243.0205,9.671875,0.76171875,-0.74609375,-0.90075684,0.045837402,-0.4317627,0.0072631836,52670.0,1068.6877,1053.29,-5.1679688,2.8125,0.91015625,0.93151855,-0.17218018,-0.31976318,0.020751953
496725,1078.0339,1443.4221,10.4375,2.6757812,-1.359375,-0.90808105,0.027893066,-0.41784668,0.004638672,52690.0,1075.0674,1050.9602,-10.535156,2.9296875,5.2773438,0.9328003,-0.17962646,-0.31237793,0.004272461
496740,1080.4417,1485.0642,12.699219,1.4140625,3.046875,0.913147,-0.01373291,0.40667725,0.0234375,52710.0,1078.7065,1046.8513,-14.203125,3.6953125,4.0507812,-0.93151855,0.18457031,0.3126831,0.020996094
496760,1083.3281,1520.2734,11.246094,0.953125,4.65625,0.9160156,-0.005432129,0.3959961,0.06347656,52735.0,1082.9717,1041.209,-14.441406,2.9296875,2.8632812,-0.92840576,0.18988037,0.315979,0.046691895
496780,1091.7852,1494.4578,9.7109375,-0.9609375,5.1914062,0.9182739,-0.005493164,0.38397217,0.09661865,52750.0,1081.4373,1038.9985,-15.203125,1.4726562,2.8632812,-0.92663574,0.19934082,0.3110962,0.06958008
496800,1095.8616,1458.7065,11.355469,-0.38671875,7.5664062,0.9202881,-0.013977051,0.37322998,0.11663818,52770.0,1079.9612,1033.8506,-14.058594,0.5546875,2.328125,-0.927063,0.2154541,0.29504395,0.083740234
496825,1099.9421,1404.7522,10.96875,1.9882812,3.9648438,0.9213257,-0.030029297,0.36889648,0.119140625,52790.0,1071.2864,1034.7468,-13.214844,-0.671875,-3.0742188,-0.928772,0.2376709,0.26861572,0.09338379
496840,1101.2976,1285.0427,11.734375,3.7109375,0.48046875,0.92352295,-0.047912598,0.3642578,0.10986328,52815.0,1070.7031,1041.0325,-13.214844,-0.6328125,-6.0234375,-0.930542,0.2662964,0.23266602,0.0947876
496860,1099.8596,1010.2241,10.7421875,2.3320312,-5.5742188,0.92736816,-0.061950684,0.35595703,0.097351074,52830.0,1074.9431,1039.479,-7.5390625,-2.4335938,-5.6015625,-0.9304199,0.28338623,0.21533203,0.087524414
496880,1096.5269,1055.3088,4.3867188,0.5703125,-11.890625,0.92785645,-0.082458496,0.35375977,0.084350586,52850.0,1081.5393,1036.6865,4.4101562,-4.6171875,-10.199219,-0.9298096,0.3017578,0.19744873,0.07354736
496900,1088.9861,1065.2249,-2.3554688,-0.80859375,-16.144531,0.92858887,-0.101623535,0.3491211,0.074401855,52875.0,1081.7153,1046.9534,7.5507812,0.74609375,-16.328125,-0.9277344,0.31488037,0.19024658,0.062805176
496925,1087.8699,1067.5613,5.265625,1.9101562,-14.691406,0.93481445,-0.10021973,0.33233643,0.07470703,52900.0,1088.5369,1040.9949,1.6523438,1.8164062,-13.03125,-0.92474365,0.3206787,0.19207764,0.0713501
496940,1087.9158,1067.9661,7.5664062,0.41796875,-13.738281,0.94091797,-0.07836914,0.31518555,0.095581055,52910.0,1088.5369,1051.0076,0.1171875,1.5507812,-12.7265625,-0.92181396,0.3206787,0.19696045,0.09283447
496960,1086.5347,1066.2217,6.953125,-1.921875,-10.359375,0.94451904,-0.05291748,0.30114746,0.12011719,52930.0,1091.2864,1047.7205,-2.9453125,0.9375,-13.496094,-0.92163086,0.31677246,0.19744873,0.10620117
496980,1087.4072,1060.5432,6.453125,-2.1875,-11.246094,0.94714355,-0.030639648,0.2915039,0.13024902,52950.0,1092.874,1048.0388,-4.25,-3.3164062,-14.988281,-0.9229126,0.3143921,0.20062256,0.095336914
497000,1083.0759,1059.6858,4.6523438,-0.734375,-12.964844,0.94873047,-0.022338867,0.29260254,0.117370605,52970.0,1091.2112,1051.562,-1.9101562,-1.59375,-13.339844,-0.92352295,0.31445312,0.20831299,0.06939697
497020,1086.075,1064.2979,4.9960938,2.6367188,-13.234375,0.9477539,-0.021728516,0.3022461,0.099487305,52990.0,1088.7703,1052.9038,-0.9921875,-0.21484375,-11.386719,-0.9227295,0.31311035,0.21875,0.051635742
497040,1083.0327,1057.0183,4.578125,3.5585938,-12.394531,0.9447632,-0.019226074,0.31427002,0.091308594,53015.0,1089.1624,1057.603,-1.9492188,0.4765625,-11.582031,-0.9216919,0.3098755,0.2288208,0.04559326
497065,1082.8782,1058.0657,4.1953125,0.9921875,-11.1640625,0.94158936,-0.014099121,0.3242798,0.08947754,53030.0,1088.4551,1059.9744,-2.4882812,-0.2890625,-11.4609375,-0.92108154,0.30633545,0.23614502,0.04473877
497080,1081.9348,1057.8789,4.84375,1.8359375,-10.519531,0.93969727,-0.00592041,0.3293457,0.09222412,53050.0,1087.2068,1058.4304,-3.1367188,-1.4765625,-11.34375,-0.9209595,0.30255127,0.24151611,0.043762207
497105,1080.447,1061.063,4.5,1.5664062,-11.1640625,0.9379883,0.0020141602,0.33343506,0.09484863,53070.0,1084.1321,1061.8872,-3.75,-1.2851562,-11.730469,-0.9209595,0.29821777,0.24829102,0.036193848
497125,1081.4897,1060.9426,6.6835938,3.8242188,-11.6640625,0.9352417,0.009277344,0.3414917,0.09277344,53090.0,1081.3579,1056.5432,-5.78125,-1.3632812,-12.652344,-0.91973877,0.293396,0.25952148,0.026428223
497140,1081.115,1059.1992,7.0664062,5.625,-12.128906,0.93115234,0.0138549805,0.35333252,0.0892334,53110.0,1078.8445,1053.5808,-6.6640625,-1.2460938,-12.4609375,-0.91674805,0.28814697,0.27593994,0.020324707
497160,1078.2234,1061.9275,7.5664062,6.3554688,-11.894531,0.9244995,0.013671875,0.37078857,0.087524414,53130.0,1077.908,1050.7886,-6.125,-1.2460938,-12.113281,-0.9116211,0.28527832,0.29534912,0.017700195
497185,1077.8479,1059.855,5.8398438,3.9023438,-10.625,0.91607666,0.006958008,0.39141846,0.08673096,53155.0,1076.2366,1052.6721,-5.2070312,-0.44140625,-11.5390625,-0.9059448,0.28460693,0.31311035,0.016052246
497205,1076.4253,1055.875,6.6445312,2.484375,-9.75,0.90808105,-0.0013427734,0.40997314,0.08538818,53175.0,1074.3772,1054.0073,-5.4726562,-0.25,-10.921875,-0.90026855,0.28381348,0.32977295,0.013000488
497220,1074.6702,1057.9751,6.953125,2.6367188,-9.859375,0.9003296,-0.007873535,0.4274292,0.08190918,53190.0,1071.4023,1051.7681,-5.9726562,-0.13671875,-10.2734375,-0.89508057,0.2824707,0.3447876,0.010009766
497240,1073.2961,1056.3135,7.2578125,2.7929688,-8.332031,0.89385986,-0.011169434,0.440979,0.07989502,53210.0,1071.388,1051.3206,-5.9726562,-0.48046875,-10.15625,-0.8905029,0.28155518,0.3572998,0.0107421875
497265,1070.5657,1056.5122,7.4101562,3.8632812,-9.019531,0.88916016,-0.012573242,0.44989014,0.08282471,53230.0,1068.1719,1047.1052,-7.0078125,-0.328125,-10.4296875,-0.8861084,0.28204346,0.3675537,0.014038086
497280,1070.8577,1056.6458,8.1015625,3.328125,-8.910156,0.88568115,-0.013671875,0.45581055,0.08709717,53250.0,1065.2703,1045.6204,-6.8554688,-0.51953125,-10.394531,-0.881958,0.28338623,0.37634277,0.0146484375
497305,1067.9016,1053.6804,8.1015625,3.1367188,-8.7890625,0.8825073,-0.014892578,0.46148682,0.089538574,53270.0,1064.0837,1043.4492,-6.546875,-0.48046875,-10.046875,-0.8781128,0.28570557,0.383667,0.012939453
497320,1066.9641,1053.5071,6.6445312,3.6328125,-8.3671875,0.8791504,-0.01727295,0.46765137,0.09008789,53295.0,1062.8901,1045.1396,-5.9726562,-0.21484375,-7.859375,-0.8742676,0.28918457,0.38964844,0.012390137
497340,1065.3972,1052.8496,5.8789062,3.9414062,-7.375,0.8765869,-0.021850586,0.47192383,0.09161377,53310.0,1060.9475,1047.7163,-5.2460938,-0.13671875,-6.7148438,-0.8701172,0.2947998,0.39465332,0.014160156
497360,1064.5923,1055.1326,4.2695312,3.40625,-6.2617188,0.8753662,-0.031311035,0.47332764,0.09350586,53330.0,1057.8088,1043.7751,-3.9414062,0.0546875,-4.9492188,-0.86657715,0.30297852,0.39624023,0.016235352
497380,1062.8242,1054.1255,0.6328125,0.4921875,-3.8125,0.87683105,-0.048461914,0.46929932,0.09259033,53350.0,1055.4565,1042.1721,-1.2617188,0.5546875,-3.1914062,-0.8651123,0.3126831,0.3916626,0.018615723
497405,1062.2708,1052.0547,-0.9765625,-0.34765625,-2.3515625,0.8815918,-0.06439209,0.45812988,0.093444824,53370.0,1053.405,1040.6492,0.234375,2.125,0.6015625,-0.8673706,0.32104492,0.3793335,0.026367188
497420,1063.1211,1053.3643,-1.1679688,-1.265625,-0.8984375,0.89038086,-0.07910156,0.43658447,0.1015625,53390.0,1051.6572,1043.405,-0.07421875,3.234375,0.6015625,-0.87268066,0.32788086,0.36016846,0.034240723
497445,1063.8481,1049.9858,2.3554688,-5.9375,1.4375,0.90057373,-0.08850098,0.41156006,0.1083374,53410.0,1050.6589,1044.8328,-0.3046875,4.2695312,-0.62109375,-0.87890625,0.33111572,0.34136963,0.036254883
497460,1065.8657,1048.5037,3.2734375,-3.7617188,-0.01953125,0.9104614,-0.09106445,0.3894043,0.10546875,53435.0,1053.8418,1045.0022,0.04296875,2.546875,-1.9648438,-0.885437,0.32885742,0.32598877,0.03930664
497480,1065.8467,1046.4004,3.5390625,-1.8828125,-1.4375,0.9173584,-0.087402344,0.37426758,0.1038208,53450.0,1054.9998,1044.6299,-0.76171875,1.7421875,-3.875,-0.8928833,0.32507324,0.30828857,0.0446167
497500,1065.9673,1046.7346,3.4648438,-0.76953125,-3.6210938,0.9238281,-0.07922363,0.35882568,0.10736084,53470.0,1054.8147,1047.2124,-1.1445312,0.78125,-5.7890625,-0.90026855,0.32086182,0.2902832,0.04852295
497520,1065.9446,1047.6599,1.9726562,-0.1953125,-6.7578125,0.9298706,-0.07006836,0.34368896,0.110839844,53490.0,1054.2722,1048.0581,-1.7578125,0.16796875,-8.128906,-0.9069214,0.31628418,0.27374268,0.04937744
497540,1067.0244,1048.877,2.9296875,0.2265625,-8.253906,0.9345093,-0.063964844,0.33270264,0.109069824,53510.0,1057.5359,1052.6499,-6.46875,1.0898438,-9.667969,-0.91223145,0.3118286,0.26190186,0.044921875
497560,1067.748,1048.81,6.453125,0.30078125,-8.292969,0.9385376,-0.059570312,0.32458496,0.101257324,53530.0,1062.2852,1054.2114,-8.4609375,2.390625,-10.15625,-0.91607666,0.3083496,0.2536621,0.037597656
497580,1068.4521,1049.0898,13.3828125,2.6757812,-9.019531,0.940979,-0.056640625,0.32092285,0.09118652,53550.0,1066.1902,1051.2354,-12.371094,3.4257812,-11.386719,-0.91900635,0.30426025,0.24847412,0.033447266
497600,1068.7231,1048.8911,16.949219,2.4101562,-8.4453125,0.9421387,-0.05279541,0.31988525,0.0848999,53575.0,1072.6968,1044.749,-13.4765625,3.0429688,-12.191406,-0.92004395,0.30004883,0.25030518,0.028442383
497620,1068.6272,1049.5369,17.183594,2.3320312,-10.1328125,0.94299316,-0.04901123,0.3196411,0.07867432,53590.0,1069.6702,1048.0173,-8.84375,1.7421875,-12.386719,-0.91973877,0.29693604,0.25579834,0.022277832
497645,1069.2852,1048.209,10.324219,3.0234375,-10.941406,0.94177246,-0.04949951,0.32434082,0.07373047,53610.0,1066.1748,1044.7327,-7.046875,0.515625,-12.113281,-0.9185791,0.29370117,0.26385498,0.0178833
497660,1069.7002,1046.8245,9.519531,2.6367188,-10.324219,0.9390259,-0.050354004,0.33270264,0.0703125,53630.0,1064.199,1041.897,-6.5078125,-0.0234375,-11.808594,-0.9169922,0.2913208,0.2720337,0.0146484375
497680,1068.6011,1046.2544,8.753906,3.0585938,-10.78125,0.9352417,-0.050048828,0.3439331,0.06768799,53650.0,1063.9927,1041.4272,-4.3632812,-0.75,-14.0625,-0.9141846,0.28881836,0.28399658,0.012939453
497700,1067.6826,1044.279,6.953125,3.1757812,-12.167969,0.9296875,-0.05114746,0.3590088,0.06500244,53670.0,1064.1829,1040.1396,-4.0195312,-1.2460938,-15.0625,-0.91015625,0.28607178,0.2993164,0.012512207
497720,1065.2522,1043.3481,6.796875,2.3320312,-14.269531,0.9221802,-0.05279541,0.3782959,0.06121826,53690.0,1063.6392,1041.6206,-4.8984375,-1.0546875,-15.0625,-0.9052124,0.28363037,0.31622314,0.010437012
497740,1064.0476,1046.686,6.953125,2.3320312,-14.347656,0.91571045,-0.053649902,0.39398193,0.057678223,53715.0,1060.862,1041.2839,-5.2460938,-0.48046875,-14.1796875,-0.90026855,0.28125,0.3322754,0.0056152344
497765,1061.97,1043.6909,7.2578125,2.140625,-14.078125,0.9083252,-0.0546875,0.41107178,0.05456543,53730.0,1057.8723,1042.6174,-5.1679688,0.09375,-13.109375,0.89501953,-0.28045654,-0.3468628,0.00018310547
497785,1060.0818,1044.3401,7.8320312,2.0625,-11.8125,0.901001,-0.056396484,0.42694092,0.052124023,53750.0,1055.648,1040.718,-5.4726562,0.36328125,-12.4921875,0.8890991,-0.27960205,-0.3623047,0.0052490234
497800,1058.7505,1044.7966,7.9101562,2.0625,-11.1640625,0.8925781,-0.057495117,0.44458008,0.049072266,53770.0,1055.1387,1044.6575,-6.203125,0.515625,-11.964844,0.8823242,-0.27838135,-0.37945557,0.0071411133
497820,1056.6985,1040.2449,7.7578125,2.2539062,-10.5859375,0.883667,-0.057800293,0.46221924,0.047058105,53795.0,1054.5979,1043.0701,-7.4296875,-0.25,-9.6953125,0.8748779,-0.27789307,-0.39660645,0.008483887
497840,1056.0513,1039.7468,7.4101562,2.7148438,-8.332031,0.8751831,-0.058044434,0.4779663,0.047302246,53810.0,1053.4609,1041.8591,-7.1992188,-0.6328125,-8.824219,0.8709717,-0.2796631,-0.40374756,0.011779785
497860,1054.7527,1037.2925,6.8359375,2.6367188,-7.1796875,0.8704834,-0.059509277,0.48638916,0.046447754,53830.0,1052.1653,1037.9136,-6.890625,-0.25,-7.7109375,0.8666992,-0.2838745,-0.40985107,0.01739502
497885,1052.2517,1037.3577,6.2226562,2.484375,-6.2617188,0.8671875,-0.062561035,0.49212646,0.043151855,53855.0,1049.8655,1036.9885,-6.0117188,1.0117188,-6.4492188,0.862854,-0.28863525,-0.41436768,0.020935059
497900,1051.7715,1038.6821,6.4140625,2.0273438,-5.6875,0.8652344,-0.066711426,0.49523926,0.040893555,53870.0,1048.1018,1035.626,-5.703125,1.1289062,-5.6015625,0.85980225,-0.29406738,-0.41693115,0.021362305
497920,1050.2808,1037.585,5.3828125,1.6054688,-4.2695312,0.8641968,-0.072753906,0.49621582,0.040893555,53890.0,1047.5012,1031.4966,-5.2460938,0.74609375,-4.7226562,0.85791016,-0.30059814,-0.41619873,0.020080566
497935,1048.669,1037.4612,4.0390625,1.2578125,-3.8867188,0.86621094,-0.08050537,0.49139404,0.041259766,53910.0,1046.4163,1030.9497,-3.9023438,0.8984375,-4.1835938,0.85839844,-0.3085327,-0.40930176,0.022277832
497965,1046.2949,1037.3091,2.96875,-0.5390625,-3.5039062,0.87176514,-0.08880615,0.48016357,0.039611816,53935.0,1041.721,1029.53,0.15625,2.8945312,-2.7304688,0.8617554,-0.3163452,-0.39575195,0.025878906
497975,1046.2737,1037.968,1.9726562,-2.5742188,-2.5078125,0.8776245,-0.095581055,0.46820068,0.037109375,53950.0,1040.4905,1029.2051,1.0742188,3.7382812,-1.65625,0.864563,-0.31933594,-0.387146,0.026123047
497995,1047.4202,1036.8638,1.703125,-3.2226562,-1.78125,0.8828125,-0.09820557,0.4578247,0.03765869,53970.0,1035.9062,1028.5159,0.84765625,4.1523438,-0.0859375,0.86932373,-0.32055664,-0.37542725,0.023803711
498020,1048.1804,1037.4294,1.1289062,-3.1132812,-0.40234375,0.88812256,-0.09692383,0.4472046,0.04260254,53995.0,1034.6836,1030.0286,-0.45703125,3.0039062,-0.8125,0.8757324,-0.3201294,-0.36090088,0.017944336
498040,1048.5791,1036.875,1.359375,-2.9140625,-0.2109375,0.89556885,-0.09173584,0.43218994,0.05267334,54015.0,1034.2104,1032.7405,-1.4140625,2.6601562,-2.7265625,0.8828125,-0.31817627,-0.34527588,0.013183594
498055,1048.9597,1034.937,1.7421875,-3.3359375,-1.4375,0.9017334,-0.08618164,0.41973877,0.0569458,54030.0,1035.1658,1035.4402,-0.6875,1.625,-4.8007812,0.8900757,-0.31506348,-0.32910156,0.013122559
498075,1048.0928,1035.3552,1.4335938,-2.5703125,-3.6953125,0.90911865,-0.07989502,0.40515137,0.05517578,54050.0,1037.2664,1035.0239,-0.41796875,0.97265625,-7.1328125,0.89697266,-0.31170654,-0.31292725,0.016723633
498100,1048.0867,1035.4768,5.0742188,-0.234375,-6.9921875,0.91571045,-0.074523926,0.3918457,0.048950195,54075.0,1042.6455,1034.5884,-8.652344,2.6210938,-8.7421875,0.90393066,-0.30737305,-0.2965088,0.022338867
498115,1047.7727,1035.1667,10.324219,1.640625,-7.5664062,0.921875,-0.06842041,0.37902832,0.0423584,54090.0,1045.4612,1036.4763,-12.066406,3.5039062,-10.3125,0.90734863,-0.305542,-0.2876587,0.024169922
498135,1047.6465,1033.5029,13.84375,2.484375,-7.71875,0.9265137,-0.06378174,0.36883545,0.038391113,54110.0,1049.7781,1035.2756,-15.011719,4.34375,-11.15625,0.90979004,-0.30456543,-0.28076172,0.02545166
498160,1047.7859,1034.4045,17.828125,1.296875,-8.140625,0.93011475,-0.061157227,0.3604126,0.035461426,54130.0,1050.5906,1032.3894,-14.3984375,5.1132812,-10.621094,0.91033936,-0.30444336,-0.27893066,0.028442383
498175,1048.3298,1033.6926,15.4140625,0.109375,-8.5234375,0.93133545,-0.061340332,0.35723877,0.03491211,54150.0,1048.5947,1030.2456,-7.2382812,4.5351562,-9.972656,0.9089966,-0.30273438,-0.2852173,0.028320312
498195,1050.7583,1032.0952,11.7734375,0.37890625,-9.019531,0.9283447,-0.06512451,0.36395264,0.03845215,54170.0,1046.3142,1026.6233,-6.4335938,3.3867188,-9.5859375,0.90625,-0.29925537,-0.29748535,0.024963379
498215,1051.8071,1030.428,10.019531,-0.1953125,-7.6796875,0.921875,-0.07006836,0.3788452,0.04144287,54190.0,1042.9531,1024.9419,-6.46875,2.046875,-9.128906,0.90319824,-0.29626465,-0.3098755,0.020751953
498235,1050.2678,1030.273,7.71875,0.4921875,-8.027344,0.9147339,-0.07330322,0.3953247,0.040222168,54215.0,1042.0583,1025.429,-5.0546875,0.36328125,-11.7265625,0.90063477,-0.2939453,-0.31951904,0.019165039
498260,1048.6064,1029.407,6.9882812,1.1054688,-9.402344,0.9094238,-0.0736084,0.4076538,0.036865234,54230.0,1041.5239,1026.0386,-4.2851562,0.4765625,-13.300781,0.8998413,-0.29144287,-0.32403564,0.018981934
498275,1044.0627,1029.2483,6.3789062,0.9921875,-11.390625,0.9067993,-0.070495605,0.4142456,0.03338623,54250.0,1040.8308,1025.6228,-3.5195312,1.0117188,-14.2578125,0.90008545,-0.28649902,-0.32781982,0.018249512
498300,1042.5132,1028.2839,6.7617188,0.68359375,-14.308594,0.9058838,-0.061462402,0.41766357,0.033569336,54270.0,1037.8816,1027.3994,-2.9453125,1.1640625,-14.375,0.8999634,-0.2802124,-0.33361816,0.014526367
498315,1041.7742,1030.4807,6.8359375,0.41796875,-12.511719,0.9042969,-0.054504395,0.42175293,0.03656006,54290.0,1036.0347,1029.9229,-4.171875,1.4726562,-11.65625,0.89819336,-0.2756958,-0.34228516,0.010314941
498335,1041.7842,1029.8176,6.7226562,0.41796875,-11.703125,0.90057373,-0.048095703,0.43017578,0.04034424,54310.0,1033.7092,1029.0339,-4.8632812,1.2421875,-10.7734375,0.8948364,-0.27227783,-0.35369873,0.00592041
498360,1040.6497,1026.6255,7.6796875,0.9921875,-9.019531,0.89404297,-0.043823242,0.4439087,0.04144287,54330.0,1033.0283,1027.0161,-5.5507812,0.9375,-10.011719,0.89019775,-0.26800537,-0.3684082,0.00079345703
498380,1039.8264,1025.54,7.8710938,1.296875,-8.25,0.88616943,-0.039489746,0.4597168,0.042114258,54355.0,1032.2756,1025.8706,-6.890625,0.62890625,-8.859375,-0.8845215,0.26190186,0.3861084,0.0014038086
498395,1039.1833,1027.1084,7.984375,0.72265625,-7.796875,0.87841797,-0.036132812,0.47479248,0.041137695,54370.0,1032.6155,1025.8914,-7.0820312,-0.25,-8.902344,0.8810425,-0.25805664,-0.39648438,0.0016479492
498420,1037.4707,1024.8152,7.3359375,0.80078125,-6.7617188,0.8722534,-0.03363037,0.48651123,0.036132812,54390.0,1033.7686,1023.96826,-7.0820312,-0.671875,-8.5859375,0.8768921,-0.2555542,-0.40704346,0.0076904297
498435,1035.8645,1025.2048,7.4101562,2.4453125,-7.484375,0.8674927,-0.032348633,0.49554443,0.02923584,54410.0,1032.5308,1023.2583,-6.7773438,-0.671875,-7.7109375,0.87280273,-0.2555542,-0.41571045,0.010803223
498460,1035.8584,1024.8372,7.4453125,0.6484375,-6.2617188,0.86376953,-0.03173828,0.5022583,0.024597168,54430.0,1030.6284,1022.9314,-6.4335938,0.58984375,-6.3320312,0.8685303,-0.25549316,-0.42462158,0.008605957
498475,1035.3853,1022.7307,7.6835938,-1.9960938,-4.3867188,0.86169434,-0.029846191,0.50616455,0.018737793,54450.0,1029.9287,1021.9358,-5.4375,2.5820312,-6.4882812,0.8674927,-0.25073242,-0.42956543,0.009277344
498495,1033.9053,1023.7307,5.8359375,-3.2617188,-3.3515625,-0.861084,0.02508545,-0.50787354,0.0013427734,54470.0,1028.032,1019.9729,-4.671875,2.46875,-6.59375,0.87353516,-0.23565674,-0.4255371,0.017456055
498515,1033.3962,1022.7566,4.0,-4.0625,-2.2773438,-0.86364746,0.016784668,-0.5022583,0.039611816,54495.0,1021.3303,1017.98315,-4.4414062,-2.5507812,-1.65625,0.88116455,-0.21783447,-0.41809082,0.036621094
498535,1032.3491,1020.844,2.5078125,-5.0273438,-1.1289062,-0.8748169,0.0076293945,-0.47625732,0.08831787,54510.0,1021.65796,1017.0217,-3.9804688,-3.1992188,-0.8515625,0.88275146,-0.2185669,-0.41375732,0.042541504
498560,1032.978,1016.9092,5.9179688,-4.2578125,-2.46875,-0.8711548,-0.0015258789,-0.46325684,0.16271973,54530.0,1022.4243,1015.4358,-1.4921875,1.0507812,-5.3398438,0.8885498,-0.22302246,-0.3982544,0.046020508
498585,1032.7402,1006.62427,0.8984375,-0.234375,-2.8945312,-0.86187744,-0.003967285,-0.46166992,0.20983887,54550.0,1023.3362,1015.36865,-1.4921875,2.1992188,-5.0625,0.89746094,-0.22247314,-0.3776245,0.049987793
498595,1033.5061,1007.51,2.1679688,-2.0742188,-1.78125,-0.8566284,0.0029296875,-0.45306396,0.2467041,54575.0,1023.9175,1014.2444,0.76953125,2.6601562,-4.6445312,0.90704346,-0.2175293,-0.35510254,0.062438965
498625,1032.7834,1007.7473,1.0898438,-3.1445312,-2.125,-0.8562622,0.0068359375,-0.44281006,0.2658081,54590.0,1023.4204,1014.6135,-1.109375,0.4765625,-3.453125,0.91973877,-0.21209717,-0.319458,0.083984375
498635,1034.7126,1004.64453,5.1875,-7.703125,1.359375,-0.873291,0.01373291,-0.42071533,0.2453003,54610.0,1023.0642,1014.88086,-0.11328125,1.3203125,-3.5703125,0.9320679,-0.20806885,-0.2770996,0.105651855
498660,1034.1982,1007.03467,3.6171875,-9.964844,0.36328125,-0.88726807,0.006652832,-0.3982544,0.23266602,54635.0,1024.1995,1015.92163,-3.484375,3.0429688,-5.6015625,0.9421387,-0.20281982,-0.23095703,0.13391113
498675,1033.8613,1007.5095,3.0429688,-7.0898438,-3.4648438,-0.89642334,-0.007873535,-0.37225342,0.24023438,54650.0,1026.2744,1016.8015,-4.8984375,3.15625,-5.0273438,0.94836426,-0.19683838,-0.19171143,0.15838623
498695,1032.7056,1008.5447,3.734375,-4.1796875,-5.6875,-0.9041748,-0.02166748,-0.3479004,0.2468872,54670.0,1028.5566,1018.7478,-5.2070312,3.1953125,-5.9453125,0.9508667,-0.19360352,-0.17419434,0.16741943
498715,1032.0742,1009.17163,3.4257812,-3.6054688,-6.4570312,-0.9161377,-0.039367676,-0.3180542,0.24084473,54690.0,1031.2263,1019.3196,-4.8242188,2.0078125,-5.40625,0.9503784,-0.19555664,-0.1751709,0.16699219
498735,1031.675,1009.6907,1.4335938,-3.1835938,-6.0703125,-0.9315796,-0.060546875,-0.28448486,0.21795654,54710.0,1032.7192,1018.99927,-2.8710938,2.5078125,-8.0546875,0.9454956,-0.20275879,-0.18359375,0.17675781
498755,1032.4619,1013.65845,4.6132812,-5.2929688,-5.3867188,-0.9451294,-0.08306885,-0.2475586,0.19647217,54730.0,1035.8267,1019.57983,-6.0898438,2.125,-5.7539062,0.94104004,-0.21136475,-0.19073486,0.18255615
498775,1034.6082,1015.11475,6.9570312,-4.0664062,-3.1992188,-0.953125,-0.10144043,-0.2111206,0.19140625,54750.0,1036.5049,1019.71387,-6.3945312,4.4609375,-5.3359375,0.94299316,-0.21948242,-0.18847656,0.16442871
498795,1035.165,1016.0928,8.910156,-3.4140625,-1.9335938,-0.95751953,-0.11456299,-0.17346191,0.19995117,54775.0,1036.5474,1020.19214,-6.1640625,6.796875,-9.128906,0.9490967,-0.22406006,-0.17285156,0.1383667
498820,1036.3552,1016.2302,8.75,-6.2851562,-3.3515625,-0.9602661,-0.12640381,-0.13537598,0.2086792,54790.0,1036.6658,1020.86865,-5.9335938,5.0351562,-10.199219,0.9506836,-0.2265625,-0.16662598,0.13092041
498835,1038.0127,1015.9253,5.9570312,-7.96875,-3.8867188,-0.9606323,-0.13671875,-0.10760498,0.21655273,54810.0,1038.4355,1021.14355,-4.9765625,2.6601562,-10.855469,0.9501953,-0.23083496,-0.17108154,0.12060547
498855,1044.3528,1015.5071,1.015625,-9.4296875,-1.6679688,-0.9543457,-0.1395874,-0.087524414,0.24902344,54830.0,1039.6072,1022.34644,-3.9023438,2.1601562,-10.7734375,0.9486084,-0.23376465,-0.1887207,0.099487305
498875,1047.0938,1012.751,-4.4648438,-6.6328125,-1.28125,-0.9407959,-0.13024902,-0.064086914,0.3062744,54850.0,1039.4802,1023.39404,-1.4921875,1.6640625,-12.265625,0.9466553,-0.23345947,-0.21026611,0.07122803
498895,1049.9702,1011.0432,-10.78125,-7.1289062,1.5117188,-0.9268799,-0.114868164,-0.026550293,0.3564453,54870.0,1040.1514,1023.23755,-2.8710938,2.0078125,-12.875,0.94403076,-0.22924805,-0.23303223,0.043395996
498920,1052.071,1010.89526,-11.7421875,-9.8515625,0.36328125,-0.914978,-0.10583496,0.01953125,0.38897705,54890.0,1039.5925,1021.8242,-2.640625,1.8164062,-13.1484375,0.94000244,-0.22357178,-0.25634766,0.025756836
498935,1051.7559,1016.3535,-13.464844,-15.636719,0.6328125,-0.89819336,-0.10467529,0.072387695,0.42077637,54915.0,1039.0442,1025.3215,-4.171875,1.7421875,-12.691406,0.93481445,-0.21881104,-0.27947998,0.013305664
498960,1052.0205,1010.9358,-14.160156,-7.0546875,-1.703125,-0.88067627,-0.10205078,0.12402344,0.44561768,54930.0,1039.2622,1027.2664,-4.4414062,2.0078125,-11.421875,0.9293213,-0.21594238,-0.29956055,0.004211426
498975,1053.3552,1018.968,-9.253906,-5.0234375,-0.9765625,-0.87023926,-0.10913086,0.17449951,0.4475708,54950.0,1038.5237,1026.9141,-5.5117188,2.046875,-10.894531,-0.92559814,0.21411133,0.3121338,0.0004272461
498995,1055.2854,1020.9973,-9.09375,-4.5625,-0.74609375,-0.86743164,-0.11907959,0.21307373,0.43359375,54970.0,1037.4639,1027.4998,-7.4296875,2.0859375,-10.5,-0.92315674,0.21099854,0.32122803,0.0028686523
499015,1061.3684,1020.8694,-12.972656,-1.0,2.28125,-0.8666992,-0.12939453,0.24584961,0.41430664,54990.0,1037.4983,1028.4324,-8.84375,1.5117188,-11.15625,-0.92059326,0.20770264,0.33062744,0.006164551
499040,1067.6763,1017.45386,-15.8046875,2.2539062,3.8125,-0.86657715,-0.13909912,0.27539062,0.39227295,55010.0,1036.3652,1028.5564,-9.765625,0.36328125,-11.621094,-0.91693115,0.20709229,0.34075928,0.013366699
499055,1070.9138,1019.1189,-18.410156,12.0234375,2.125,-0.8718262,-0.15093994,0.3065796,0.35095215,55030.0,1036.0637,1027.4312,-9.878906,0.20703125,-11.425781,-0.9116821,0.21044922,0.3522339,0.0211792
499085,1077.4673,1038.4419,-28.9375,18.574219,-5.9570312,-0.88342285,-0.1652832,0.32965088,0.28912354,55055.0,1035.9348,1024.7146,-8.808594,0.8984375,-10.160156,-0.9047241,0.21826172,0.36505127,0.023620605
499095,1080.0298,1043.9612,-35.23047,18.535156,-9.6328125,-0.8897705,-0.18121338,0.36175537,0.2111206,55070.0,1035.081,1023.93945,-8.1171875,1.0507812,-9.433594,-0.89782715,0.22937012,0.3753662,0.018371582
499120,1082.7444,1048.4683,-30.550781,21.832031,-18.675781,-0.887146,-0.19873047,0.39819336,0.12231445,55090.0,1033.8606,1022.594,-7.4296875,1.8945312,-8.546875,-0.89178467,0.24273682,0.3817749,0.008850098
499135,1082.9619,1056.1875,-31.472656,17.65625,-23.960938,-0.8746338,-0.21887207,0.4321289,0.017089844,55110.0,1032.0396,1020.9331,-7.4648438,2.3164062,-8.363281,0.88671875,-0.25616455,-0.38476562,0.002746582
499160,1081.4102,1060.7424,-34.347656,10.4921875,-27.140625,0.8539429,0.23400879,-0.45788574,0.07928467,55130.0,1030.9463,1021.2283,-8.425781,2.546875,-8.8203125,0.8822632,-0.2680664,-0.3866577,0.0154418945
499175,1080.4714,1054.3611,-31.011719,3.5976562,-25.609375,0.8239136,0.24890137,-0.47802734,0.17529297,55150.0,1029.0181,1021.3684,-9.265625,3.0429688,-9.316406,0.87835693,-0.27844238,-0.38757324,0.026855469
499195,1078.9131,1052.2595,-23.582031,-14.214844,-19.824219,0.7998657,0.25531006,-0.4909668,0.2322998,55170.0,1028.0515,1020.5176,-9.425781,3.2734375,-8.667969,0.8739624,-0.288208,-0.38891602,0.04272461
499215,1073.9199,1045.8313,-22.351562,-21.535156,-9.6328125,0.7913208,0.24737549,-0.50823975,0.23303223,55195.0,1026.7246,1018.5596,-5.28125,1.625,-8.5859375,0.8678589,-0.29785156,-0.3922119,0.06518555
499235,1072.3877,1047.0186,-17.105469,-24.75,-9.7890625,0.7918701,0.23596191,-0.5289917,0.19348145,55210.0,1025.9722,1018.22534,-5.5117188,2.4296875,-7.5195312,0.86047363,-0.30810547,-0.3965454,0.0859375
499255,1075.4961,1057.0134,-6.8789062,-33.527344,-8.6015625,0.789917,0.22808838,-0.5554199,0.12438965,55230.0,1025.3706,1018.468,-6.203125,3.8085938,-6.4101562,0.8546753,-0.31640625,-0.39941406,0.09954834
499275,1074.6494,1052.4114,-21.359375,-24.675781,-16.335938,0.7753296,0.21832275,-0.59228516,0.02130127,55250.0,1023.4343,1016.407,-6.6640625,5.0742188,-5.640625,0.8501587,-0.32141113,-0.40179443,0.111572266
499300,1071.3538,1035.1375,-37.14453,-0.00390625,-19.707031,-0.74102783,-0.19836426,0.6368408,0.07727051,55275.0,1022.3362,1015.5486,-5.7421875,3.8867188,-5.6796875,0.8466797,-0.32312012,-0.40307617,0.12731934
499315,1067.3745,1022.93066,-34.152344,9.34375,-15.074219,-0.67926025,-0.20751953,0.6921997,0.12805176,55290.0,1020.88184,1015.3457,-4.2109375,1.703125,-6.2929688,0.8438721,-0.32299805,-0.4033203,0.14440918
499335,1062.8486,1017.99976,-27.023438,-2.8007812,-14.652344,-0.6242676,-0.2456665,0.72772217,0.14282227,55310.0,1018.93896,1013.20044,-3.5195312,1.5507812,-6.1015625,0.84313965,-0.32147217,-0.40008545,0.16021729
499355,1061.3511,1016.2002,-22.960938,-4.4492188,-12.4296875,-0.56689453,-0.2695923,0.75805664,0.17694092,55335.0,1018.8445,1010.71704,-5.859375,2.3515625,-3.5351562,0.84436035,-0.31713867,-0.39349365,0.17785645
499380,1053.0874,1016.37305,-18.867188,1.5273438,-13.121094,-0.51605225,-0.31591797,0.7713623,0.19732666,55350.0,1019.27466,1010.4346,-5.2070312,1.3203125,-0.046875,0.84375,-0.31359863,-0.38720703,0.19946289
499395,1049.1514,1015.1543,-21.550781,-1.765625,-8.140625,-0.4642334,-0.38146973,0.7734375,0.20184326,55370.0,1020.10767,1007.5928,-2.9453125,-0.55859375,1.3710938,0.84313965,-0.315979,-0.37652588,0.21777344
499425,1034.4292,1009.4363,-14.003906,1.7578125,-2.6601562,-0.4156494,-0.45690918,0.76342773,0.1887207,55390.0,1020.1084,1006.57007,-2.7109375,0.58984375,1.1796875,0.84765625,-0.31982422,-0.35845947,0.22515869
499435,1034.4292,1002.46704,-16.035156,4.859375,0.6328125,-0.36608887,-0.5338745,0.7425537,0.171875,55410.0,1019.97,1003.8347,-0.5703125,2.3125,-1.0820312,0.85601807,-0.32147217,-0.33587646,0.22601318
499455,1022.1162,998.76196,-21.546875,7.7734375,0.32421875,-0.32250977,-0.5834961,0.73028564,0.14892578,55430.0,1020.6028,1003.4053,0.26953125,0.9375,-0.69921875,0.8657837,-0.32305908,-0.30950928,0.22418213
499475,1014.6013,1000.583,-13.65625,4.9765625,-16.140625,-0.26538086,-0.6628418,0.694397,0.089660645,55450.0,1021.87085,1001.4558,-0.265625,-0.37109375,-0.35546875,0.87542725,-0.32696533,-0.2769165,0.22381592
499495,1006.01953,1008.52954,-4.921875,-8.433594,-22.472656,-0.20654297,-0.7390747,0.6401367,0.036376953,55475.0,1024.4585,1001.7178,-3.4453125,-2.625,-0.390625,0.88464355,-0.33099365,-0.24053955,0.22363281
499515,1006.7539,1007.67017,-7.9882812,-14.484375,-24.070312,-0.13879395,-0.7910156,0.5958252,0.004211426,55495.0,1026.0144,1003.9905,-1.7578125,-4.734375,-0.5859375,0.89501953,-0.33605957,-0.20391846,0.21063232
499535,1004.7195,1006.6135,-14.15625,-16.554688,-39.20703,0.059448242,0.8092041,-0.58428955,0.017333984,55510.0,1027.5857,1006.1609,1.0742188,-4.9648438,-1.9257812,0.9094238,-0.3399048,-0.16345215,0.17529297
499560,1004.9048,1006.42163,-10.4765625,-24.828125,-38.86328,0.013793945,-0.82006836,0.5720215,0.008178711,55530.0,1029.9998,1003.01733,3.9101562,-5.421875,-3.4960938,0.9227905,-0.3427124,-0.123291016,0.12561035
499580,1005.3154,1005.48975,-17.066406,-12.722656,-40.285156,0.05218506,-0.8278198,0.5496216,0.099365234,55555.0,1034.9646,1002.8877,8.167969,-3.0859375,-6.0234375,0.9332886,-0.34191895,-0.080566406,0.07513428
499595,1005.16016,1004.9536,-32.273438,-5.9023438,-32.69922,0.05718994,-0.8361206,0.49975586,0.21881104,55570.0,1038.335,1001.97095,5.40625,-4.3125,-3.265625,0.940979,-0.33563232,-0.033813477,0.026672363
499615,1005.30005,1005.0322,-32.960938,5.625,-21.203125,0.034484863,-0.8500366,0.41290283,0.3251953,55590.0,1043.7937,1001.5371,5.0234375,-7.2226562,-0.9296875,-0.94537354,0.32537842,-0.014404297,0.015075684
499640,1005.3428,1004.62695,-35.835938,7.0429688,-15.378906,-0.00390625,-0.85791016,0.33551025,0.3890381,55615.0,1046.1902,1003.6482,14.328125,-9.332031,-3.9921875,-0.9456787,0.31469727,-0.061340332,0.05340576
499655,1005.3738,1004.66846,-34.421875,7.4648438,-10.707031,-0.068847656,-0.8616333,0.25061035,0.4359131,55635.0,1050.0378,1006.1511,18.695312,-8.640625,-6.0625,-0.9428711,0.3007202,-0.11090088,0.09075928
499685,1005.30493,1004.8291,-36.296875,0.37890625,-11.855469,-0.16107178,-0.8580322,0.17126465,0.456604,55650.0,1052.2988,1009.08203,17.703125,-5.9609375,-7.1328125,-0.9368286,0.28948975,-0.1640625,0.10772705
499695,1005.35913,1004.8291,-38.4375,-5.5195312,-14.996094,-0.28155518,-0.8413086,0.08648682,0.45324707,55670.0,1057.2341,1009.13184,15.2890625,-5.5,-5.5625,-0.928833,0.28155518,-0.21374512,0.11102295
499715,1005.43164,1004.96313,-41.007812,-12.339844,-14.574219,-0.41088867,-0.8029175,0.0020141602,0.43188477,55695.0,1064.584,1010.32886,17.085938,2.7382812,-1.3867188,-0.9209595,0.27368164,-0.25531006,0.10858154
499740,1005.5134,1005.05664,-44.878906,-16.324219,-6.2617188,-0.5482788,-0.7314453,-0.066467285,0.4000244,55710.0,1068.5403,1012.4834,20.6875,6.71875,-0.69921875,-0.9136963,0.26605225,-0.29034424,0.10028076
499755,1005.50146,1005.0017,-43.382812,-13.375,-4.578125,-0.6503296,-0.659729,-0.10559082,0.36151123,55730.0,1071.7925,1024.9783,23.21875,10.628906,-1.6953125,-0.90722656,0.2546997,-0.32373047,0.08569336
499780,1005.44946,1005.30273,-38.789062,-11.6484375,-7.5273438,-0.7648926,-0.5582886,-0.14477539,0.28686523,55755.0,1078.0728,1025.6721,32.76172,15.609375,-11.1171875,-0.8987427,0.24481201,-0.36108398,0.043823242
499795,1005.43115,1005.4419,-34.191406,-20.652344,-18.328125,-0.850647,-0.45593262,-0.16894531,0.20007324,55775.0,1081.5327,1034.5522,32.984375,6.5273438,-16.097656,0.88342285,-0.24127197,0.40075684,0.026672363
499815,1005.4685,1005.3533,-23.886719,-25.25,-19.898438,-0.9024048,-0.3739624,-0.16796875,0.1328125,55790.0,1080.6311,1037.4216,34.82422,2.046875,-16.671875,0.8614502,-0.23382568,0.43988037,0.09869385
499830,1005.4397,1005.396,-19.480469,-24.867188,-17.910156,-0.9329834,-0.30914307,-0.14837646,0.109375,55810.0,1080.0288,1043.8381,35.058594,1.1640625,-19.507812,0.8357544,-0.22265625,0.4758911,0.15960693
499850,1005.37085,1005.8933,-17.757812,-21.148438,-19.898438,-0.9529419,-0.25531006,-0.11755371,0.11383057,55835.0,1074.9585,1046.48,30.496094,-6.5703125,-18.894531,0.81134033,-0.21246338,0.50286865,0.20916748
499870,1005.272,1005.54834,-9.40625,-17.664062,-25.757812,-0.9668579,-0.21282959,-0.0927124,0.10626221,55850.0,1072.3657,1039.8696,26.164062,-12.546875,-15.371094,0.7907715,-0.20513916,0.52563477,0.23718262
499895,1005.30493,1005.688,-5.9570312,-19.847656,-26.339844,-0.9767456,-0.17767334,-0.08770752,0.08154297,55870.0,1068.7183,1042.6921,17.164062,-16.074219,-11.730469,0.7770996,-0.2033081,0.54541016,0.23950195
499915,1005.45996,1005.75464,-5.5,-23.527344,-23.347656,-0.9828491,-0.14666748,-0.09875488,0.051940918,55895.0,1069.5449,1040.3433,-3.0234375,-36.523438,1.0625,0.7714844,-0.20318604,0.56707764,0.20489502
499935,1005.6448,1005.8042,-2.1640625,-28.273438,-13.6171875,-0.9859009,-0.12548828,-0.10803223,0.024414062,55915.0,1067.2383,1035.956,17.242188,-28.867188,-7.0195312,0.7727661,-0.19610596,0.58984375,0.1281128
499950,1005.6909,1005.8076,5.9921875,-28.855469,-9.328125,-0.9866333,-0.1251831,-0.10253906,0.018859863,55930.0,1060.6831,1030.7239,25.664062,-25.074219,-19.851562,0.7620239,-0.19378662,0.6174927,0.02142334
499970,1005.68896,1005.65674,7.0664062,-23.945312,-7.1054688,-0.98553467,-0.14056396,-0.09008789,0.028747559,55955.0,1057.4968,1025.5903,34.48047,-9.8671875,-29.351562,-0.729126,0.20379639,-0.65093994,0.056518555
499995,1005.65454,1005.5149,4.3867188,-13.7578125,-7.21875,-0.9827881,-0.16448975,-0.075927734,0.0357666,55985.0,1041.0981,1031.709,28.921875,0.8984375,-19.394531,-0.6730957,0.2543335,-0.6898804,0.07922363
500010,1005.6885,1005.4468,1.2421875,-11.386719,-7.9101562,-0.97875977,-0.19366455,-0.056396484,0.037109375,55995.0,1033.9326,1031.709,25.980469,1.7421875,-7.9023438,-0.61383057,0.328125,-0.71343994,0.08068848
500030,1005.7178,1005.3894,-1.8984375,-7.0546875,-8.9453125,-0.9741211,-0.22277832,-0.030151367,0.023620605,56010.0,1029.4746,1038.4822,28.355469,3.65625,-7.2890625,-0.5444336,0.42590332,-0.7188721,0.07318115
500055,1011.12134,1005.26294,-12.472656,-0.6171875,-11.816406,0.9689331,0.24713135,0.001159668,0.007751465,56035.0,1016.14404,1038.0354,32.48828,4.078125,-1.6171875,-0.45355225,0.53393555,-0.7116089,0.05328369
500075,1010.3325,1005.33105,10.285156,-1.34375,-14.957031,0.96398926,0.26190186,-0.028686523,0.036621094,56055.0,1010.82446,1036.0867,29.503906,0.70703125,-9.855469,-0.34075928,0.63165283,-0.6960449,0.021057129
500090,1013.36646,1005.1936,2.1640625,0.1875,-6.5742188,0.96032715,0.26837158,-0.026733398,0.07055664,56070.0,998.792,1033.1523,21.953125,-1.0195312,-7.8632812,0.22558594,-0.694397,0.6832886,0.00030517578
500110,1012.979,1005.2949,-1.4375,-2.6484375,-3.3945312,0.95477295,0.27166748,-0.030761719,0.11669922,56090.0,997.94116,1033.3,16.746094,-4.8867188,-14.7578125,-0.10992432,0.73327637,-0.67089844,0.009338379
500130,1012.54614,1005.4053,-2.625,-4.1796875,-5.1484375,0.9463501,0.27923584,-0.047668457,0.15570068,56115.0,1005.7046,1007.34326,40.11328,0.015625,-25.214844,0.012756348,0.74975586,-0.6605835,0.036193848
500150,1013.98584,1005.78076,-2.9335938,-0.08203125,-4.4257812,0.9394531,0.28570557,-0.0736084,0.17443848,56130.0,1005.9219,1005.3699,19.921875,-11.3984375,-28.089844,0.107299805,0.7817383,-0.612854,0.042236328
500170,1014.70776,1007.55396,-3.2773438,1.4882812,-5.7265625,0.9376831,0.28515625,-0.0993042,0.17199707,56155.0,1004.4158,1008.98535,11.761719,-26.492188,-18.550781,0.18060303,0.8000488,-0.56414795,0.095458984
500195,1017.3938,1008.4651,-8.0234375,2.2929688,-7.640625,0.9412842,0.2727661,-0.12634277,0.15374756,56175.0,1004.59937,1005.4885,28.007812,-5.3476562,-26.289062,0.21057129,0.815979,-0.503479,0.19073486
500210,1019.22046,1009.44604,-5.6132812,3.5195312,-7.0234375,0.9446411,0.26068115,-0.14312744,0.13873291,56195.0,1004.9004,1005.1089,33.710938,-2.1289062,-30.503906,0.19763184,0.8284912,-0.43121338,0.2975464
500235,1026.0127,1012.8452,-6.4960938,2.4101562,-4.3867188,0.9506836,0.24395752,-0.15533447,0.111816406,56210.0,1004.60986,1004.80566,31.570312,-6.1523438,-28.089844,0.15460205,0.8386841,-0.335083,0.4005127
500255,1034.2671,1014.6135,-8.2890625,-4.296875,1.703125,0.95910645,0.21948242,-0.16809082,0.0602417,56235.0,1004.6428,1004.80786,39.26953,-11.933594,-29.3125,0.08795166,0.8387451,-0.23309326,0.4841919
500275,1036.3201,1013.18994,-5.3085938,-6.8632812,0.90234375,0.96466064,0.18591309,-0.18670654,0.0041503906,56255.0,1004.698,1004.61426,45.4375,-13.46875,-20.160156,-0.014221191,0.81536865,-0.12054443,0.5661011
500290,1038.1638,1011.99854,-7.296875,-8.699219,-2.46875,-0.9654541,-0.15570068,0.20587158,0.03527832,56275.0,1004.79297,1004.5906,50.722656,-9.828125,-17.59375,-0.105773926,0.7816162,-0.054748535,0.6123047
500310,1044.2976,1014.71313,-7.5273438,-12.800781,-5.6484375,-0.9649658,-0.13787842,0.20568848,0.08703613,56290.0,1004.7512,1004.61743,56.085938,-7.3398438,-15.5625,-0.2468872,0.7238159,0.018066406,0.644104
500330,1047.2393,1013.3833,-10.558594,-8.855469,-6.3398438,-0.9605713,-0.11608887,0.19866943,0.15625,56310.0,1004.8469,1004.7827,58.382812,-6.8789062,-15.90625,-0.40753174,0.65509033,0.07611084,0.6315918
500350,1053.2473,1009.7942,-9.4765625,-6.7851562,-2.2773438,-0.9517822,-0.099243164,0.19940186,0.2109375,56330.0,1004.9429,1004.85547,63.59375,-13.199219,-13.6484375,-0.56707764,0.57489014,0.10168457,0.58099365
500370,1055.7273,1010.2661,-7.8007812,-4.0664062,-2.0859375,-0.9413452,-0.09094238,0.19903564,0.25689697,56350.0,1005.0405,1005.447,64.08594,-12.433594,-12.574219,-0.69958496,0.4749756,0.09197998,0.5258179
500390,1064.387,1012.9204,-13.925781,12.7890625,1.6679688,-0.9356079,-0.07525635,0.20166016,0.27978516,56375.0,1005.114,1006.0261,65.16406,-11.972656,-12.535156,-0.8128052,0.34350586,0.07537842,0.4644165
500410,1070.0105,1007.0398,-19.292969,15.28125,-1.1679688,-0.94537354,-0.062805176,0.21844482,0.23364258,56395.0,1005.2361,1006.0029,59.148438,-21.320312,-12.269531,-0.9029541,0.1942749,0.04711914,0.3803711
500430,1078.677,1029.387,-18.789062,11.371094,-6.875,-0.95513916,-0.06890869,0.24188232,0.15625,56410.0,1005.3091,1005.84375,49.0,-23.464844,-10.0078125,-0.9371948,0.1005249,0.010375977,0.33392334
500455,1083.8491,1034.0781,-28.449219,23.976562,-10.246094,-0.95440674,-0.07507324,0.28204346,0.06237793,56435.0,1026.2522,1006.71436,42.523438,-56.367188,-42.64453,-0.9585571,0.05053711,-0.03277588,0.27844238
500475,1085.1985,1039.6638,-34.265625,20.335938,-17.488281,0.9437256,0.08337402,-0.31982422,0.012268066,56455.0,1011.6948,1005.7405,17.96875,-53.42578,-36.441406,-0.95806885,0.033691406,-0.02935791,0.28295898
500490,1085.7488,1045.8748,-34.496094,18.574219,-22.199219,0.9165039,0.0949707,-0.37231445,0.111450195,56470.0,1014.46924,1006.5886,14.90625,-22.933594,-21.078125,-0.95336914,-0.0009765625,0.032165527,0.30010986
500515,1083.3271,1055.0364,-35.1875,18.0,-25.722656,0.8757324,0.10467529,-0.42401123,0.20581055,56490.0,1015.4177,1006.42944,5.9023438,-36.07422,-16.097656,-0.94836426,0.0020141602,0.083618164,0.3059082
500530,1082.6721,1063.137,-32.773438,9.417969,-23.730469,0.82562256,0.11236572,-0.46948242,0.29205322,56510.0,1022.0598,1006.3484,-11.296875,-34.5,-14.183594,-0.9411011,0.007385254,0.13903809,0.30810547
500550,1081.0857,1045.5684,-28.332031,-2.53125,-17.371094,0.7748413,0.11505127,-0.50598145,0.36102295,56535.0,1028.7639,1007.14355,-2.21875,-24.765625,-13.609375,-0.9326782,0.04260254,0.2006836,0.29663086
500570,1077.908,1040.23,-27.527344,-13.949219,-10.515625,0.7416992,0.10321045,-0.53674316,0.3887329,56550.0,1025.648,1005.59717,0.46484375,-17.296875,-9.5859375,-0.9298096,0.07879639,0.2312622,0.27514648
500590,1074.4741,1035.8926,-20.015625,-24.554688,-11.167969,0.7286377,0.09460449,-0.565979,0.37390137,56570.0,1023.2925,1004.9431,-2.6015625,-17.640625,-7.6328125,-0.9312744,0.12371826,0.24993896,0.23443604
500615,1073.2439,1045.8213,-13.0078125,-40.191406,-14.152344,0.7357788,0.08807373,-0.59680176,0.3076172,56595.0,1022.926,1001.7283,-2.640625,-16.417969,-5.1445312,-0.9320679,0.17114258,0.256958,0.1895752
500630,1072.4617,1055.594,-22.160156,-34.75,-26.375,0.75512695,0.08618164,-0.62402344,0.18151855,56610.0,1017.1113,1002.6167,0.84765625,-9.910156,-4.4140625,-0.93066406,0.21881104,0.25482178,0.14526367
500655,1067.5088,1044.854,-48.210938,18.804688,-20.015625,0.74468994,0.0657959,-0.66381836,0.021728516,56630.0,1018.9917,1004.52954,0.00390625,-8.21875,-4.8359375,-0.92822266,0.26013184,0.24700928,0.09863281
500670,1061.9187,1027.2944,-35.835938,20.988281,-15.953125,-0.70928955,-0.0836792,0.6995239,0.023925781,56650.0,1018.66626,1004.59644,0.9609375,-4.6601562,-4.53125,-0.92474365,0.29333496,0.23736572,0.049926758
500690,1057.1274,1027.6245,-25.953125,0.9921875,-13.503906,-0.66204834,-0.13946533,0.7347412,0.04925537,56675.0,1020.7471,1005.0862,1.1914062,1.3945312,-4.1796875,0.9220581,-0.31604004,-0.2234497,0.0052490234
500715,1048.4214,1029.636,-23.699219,5.703125,-4.15625,-0.6170654,-0.21459961,0.75390625,0.06945801,56690.0,1020.6245,1004.2046,2.453125,2.390625,-3.8007812,0.92266846,-0.32073975,-0.20837402,0.04901123
500740,1034.1838,1020.86646,-30.320312,15.28125,-0.36328125,-0.5435791,-0.3552246,0.75683594,0.074645996,56710.0,1020.4641,1004.94165,1.9570312,2.8515625,-3.375,0.9246216,-0.31713867,-0.1862793,0.09881592
500760,1030.4775,1017.40137,-24.121094,17.234375,3.7734375,-0.477417,-0.46881104,0.7416382,0.047302246,56735.0,1022.34644,1006.73,2.453125,0.20703125,-2.765625,0.927124,-0.30944824,-0.15875244,0.1394043
500780,1024.8806,1016.7837,-19.402344,2.0625,2.3554688,-0.40637207,-0.5375366,0.73791504,0.037963867,56750.0,1024.2666,1008.0134,-0.03515625,-4.734375,0.94921875,0.9303589,-0.30560303,-0.12756348,0.1572876
500800,1017.4524,1010.2036,-26.457031,6.046875,-13.503906,-0.32092285,-0.5536499,0.76727295,0.041931152,56770.0,1029.8806,1008.3828,0.84765625,-5.3867188,-0.390625,0.9387207,-0.3013916,-0.101257324,0.13336182
500820,1008.1321,1009.84814,-13.925781,5.6640625,-32.003906,-0.22662354,-0.585022,0.77789307,0.036376953,56790.0,1032.6797,1006.7466,2.9140625,-3.8125,-3.5351562,0.9494629,-0.29260254,-0.080322266,0.080322266
