timestamp_1,fPressureFront_1,fPressureSide_1,acceleration.x_1,acceleration.y_1,acceleration.z_1,quaternion.i_1,quaternion.j_1,quaternion.k_1,quaternion.real_1,timestamp_2,fPressureFront_2,fPressureSide_2,acceleration.x_2,acceleration.y_2,acceleration.z_2,quaternion.i_2,quaternion.j_2,quaternion.k_2,quaternion.real_2
290385,1007.78687,1008.23267,7.75,3.7734375,4.5664062,-0.19445801,-0.49438477,-0.6343994,0.56152344,240670.0,1007.50073,1009.1897,-5.1132812,6.6210938,4.3984375,0.5459595,0.0914917,-0.4329834,0.71136475
290400,1007.8135,1008.2698,7.0234375,5.8007812,2.8046875,0.06964111,-0.6251221,-0.40325928,0.6646118,240690.0,1007.4551,1009.1824,-5.8085938,5.4296875,5.546875,0.3562622,0.30981445,-0.050109863,0.88012695
290420,1007.76416,1008.2434,7.2617188,5.4570312,2.6132812,0.072143555,-0.6282959,-0.40014648,0.66326904,240710.0,1007.4634,1009.15405,-5.6875,5.7773438,5.6601562,0.35803223,0.30969238,-0.052246094,0.87927246
290440,1007.7883,1008.23755,7.21875,5.5703125,2.265625,0.076049805,-0.63305664,-0.3951416,0.6613159,240730.0,1007.49023,1009.18335,-5.5742188,5.5039062,5.65625,0.35931396,0.3104248,-0.053588867,0.87841797
290460,1007.7644,1008.2334,7.3007812,5.8007812,2.0390625,0.083984375,-0.6403198,-0.38476562,0.65948486,240750.0,1007.4912,1009.2012,-5.5742188,5.6171875,5.3945312,0.3591919,0.3114624,-0.053833008,0.8781128
290480,1007.7822,1008.2329,7.3007812,6.03125,1.7695312,0.09313965,-0.6468506,-0.37286377,0.6586914,240770.0,1007.49097,1009.1914,-5.8085938,5.2382812,5.3945312,0.35876465,0.31170654,-0.053894043,0.87823486
290500,1007.7805,1008.291,7.21875,6.2617188,1.7304688,0.1038208,-0.6538086,-0.35906982,0.65789795,240790.0,1007.47974,1009.18115,-5.6875,5.3125,5.5078125,0.35882568,0.3112793,-0.053710938,0.87835693
290515,1007.7908,1008.2622,7.21875,6.375,1.6171875,0.11352539,-0.66015625,-0.34655762,0.65667725,240810.0,1007.4968,1009.1438,-5.5351562,5.4648438,5.6601562,0.36010742,0.31097412,-0.053588867,0.8779297
290535,1007.7549,1008.27905,7.5273438,6.3398438,0.6953125,0.12005615,-0.66516113,-0.3381958,0.6548462,240830.0,1007.5088,1009.1802,-5.421875,5.5429688,5.4296875,0.36120605,0.31176758,-0.053955078,0.87713623
290555,1007.7615,1008.2688,7.7539062,6.109375,0.390625,0.1239624,-0.66882324,-0.33355713,0.65270996,240850.0,1007.48047,1009.1863,-5.6875,5.6992188,5.3164062,0.36175537,0.31292725,-0.05480957,0.87646484
290575,1007.7661,1008.2964,7.7890625,6.109375,0.23828125,0.12640381,-0.6709595,-0.3324585,0.65063477,240870.0,1007.48315,1009.1531,-5.765625,5.6210938,5.3554688,0.3624878,0.31341553,-0.055725098,0.8759155
290600,1007.7417,1008.2781,7.6445312,6.109375,0.046875,0.12762451,-0.6719971,-0.3343506,0.64837646,240890.0,1007.4968,1009.15234,-5.6875,5.8125,5.2773438,0.3632202,0.31359863,-0.05645752,0.8754883
290615,1007.7661,1008.33105,7.5273438,6.1484375,0.046875,0.128479,-0.6721802,-0.33538818,0.6473999,240910.0,1007.5093,1009.1765,-5.6132812,5.7773438,5.5078125,0.3623047,0.31469727,-0.055480957,0.8755493
290635,1007.76416,1008.32056,7.3710938,6.0703125,0.16015625,0.12976074,-0.6722412,-0.3357544,0.64697266,240930.0,1007.4929,1009.13745,-5.7265625,5.4648438,5.5859375,0.36138916,0.315979,-0.054382324,0.8755493
290655,1007.73047,1008.3386,7.1835938,5.9179688,0.50390625,0.13122559,-0.6723633,-0.33532715,0.6467285,240950.0,1007.52466,1009.1482,-5.8046875,5.2382812,5.546875,0.3616333,0.31652832,-0.054382324,0.87524414
290675,1007.7605,1008.3137,7.3007812,5.6875,0.8125,0.13189697,-0.6723633,-0.33581543,0.64630127,240970.0,1007.51685,1009.1643,-5.875,5.1992188,5.3945312,0.36273193,0.31695557,-0.054870605,0.8746338
290695,1007.79224,1008.3074,7.2578125,5.6484375,0.92578125,0.1326294,-0.67266846,-0.33618164,0.6456909,240990.0,1007.50586,1009.1743,-5.7304688,5.1992188,5.2773438,0.36395264,0.31756592,-0.05480957,0.87390137
290715,1007.75635,1008.2903,7.3359375,5.7265625,0.96484375,0.13397217,-0.6734619,-0.3359375,0.6446533,241010.0,1007.50977,1009.1824,-5.9179688,5.2734375,5.3164062,0.3651123,0.31811523,-0.053833008,0.873291
290740,1007.7449,1008.3235,7.4101562,5.9179688,0.46484375,0.1361084,-0.6744995,-0.33551025,0.6433716,241030.0,1007.4951,1009.1787,-5.9921875,5.3125,4.9726562,0.36663818,0.3180542,-0.05291748,0.8727417
290755,1007.7429,1008.2888,7.4492188,5.9921875,0.46484375,0.1395874,-0.675354,-0.33441162,0.642395,241050.0,1007.5073,1009.1846,-5.9179688,5.5429688,5.0859375,0.36816406,0.31726074,-0.052368164,0.8724365
290775,1007.7532,1008.29346,7.4492188,5.9921875,0.54296875,0.14428711,-0.6756592,-0.33270264,0.6418457,241070.0,1007.54614,1009.18506,-5.7265625,5.7382812,5.1640625,0.36950684,0.3161621,-0.05206299,0.8722534
290795,1007.78906,1008.29614,7.1796875,6.0703125,0.7734375,0.14941406,-0.67633057,-0.33026123,0.6412964,241090.0,1007.5039,1009.1736,-5.5742188,5.8125,5.4296875,0.37097168,0.31573486,-0.0513916,0.8718262
290820,1007.751,1008.29443,6.9179688,6.4140625,0.58203125,0.15472412,-0.67785645,-0.32635498,0.6403198,241110.0,1007.4739,1009.1726,-5.6484375,5.8867188,5.3164062,0.3741455,0.31536865,-0.051086426,0.87060547
290835,1007.7595,1008.2742,7.0234375,6.1835938,0.62109375,0.15844727,-0.6795654,-0.32287598,0.6394043,241130.0,1007.4768,1009.1372,-5.8046875,5.7734375,5.1640625,0.38079834,0.3139038,-0.05303955,0.868103
290855,1007.7676,1008.29346,7.2578125,5.8789062,0.6953125,0.16540527,-0.6829834,-0.31567383,0.63757324,241150.0,1007.43823,1009.1194,-5.875,5.6210938,4.9726562,0.39337158,0.31085205,-0.06036377,0.8631592
290880,1007.7742,1008.2832,7.4492188,5.609375,0.54296875,0.17694092,-0.6883545,-0.30230713,0.6351929,241170.0,1007.43994,1009.10693,-6.2617188,5.1601562,4.78125,0.41796875,0.30395508,-0.07775879,0.8526001
290895,1007.7107,1008.3279,7.75,5.4570312,0.2734375,0.19403076,-0.69628906,-0.27874756,0.6323242,241190.0,1007.43677,1009.1094,-6.375,4.7382812,3.9375,0.46209717,0.29022217,-0.1126709,0.8303833
290915,1007.74976,1008.28735,7.6015625,5.1875,0.08203125,0.21765137,-0.70770264,-0.2368164,0.62908936,241215.0,1007.3723,1009.0779,-7.2226562,4.46875,0.98828125,0.5205078,0.2685547,-0.16467285,0.7935791
290935,1007.73584,1008.2678,8.027344,4.8046875,-0.3359375,0.2454834,-0.7211304,-0.17376709,0.6240845,241230.0,1007.3955,1009.0044,-7.6015625,4.3164062,-0.66015625,0.592041,0.23327637,-0.2345581,0.7348633
290960,1007.7627,1008.2446,8.292969,3.8476562,-0.453125,0.28070068,-0.7364502,-0.078186035,0.61047363,241250.0,1007.3447,1008.9763,-7.21875,4.8515625,-1.578125,0.66204834,0.18682861,-0.30993652,0.65631104
290980,1007.6929,1008.2554,8.253906,3.8085938,-0.796875,0.3022461,-0.7438965,-0.014587402,0.5958252,241270.0,1007.35425,1008.97534,-6.8398438,4.7773438,-2.421875,0.72052,0.13812256,-0.3791504,0.56396484
290995,1007.7068,1008.2827,8.371094,2.96875,-0.68359375,0.3265381,-0.75115967,0.057922363,0.5708008,241290.0,1007.34644,1009.0615,-6.3007812,6.7304688,-2.9179688,0.76672363,0.09313965,-0.43902588,0.4590454
291015,1007.72925,1008.32495,8.253906,1.9726562,-0.26171875,0.34924316,-0.7583008,0.11669922,0.53796387,241315.0,1007.3718,1009.13745,-6.875,6.921875,-3.4179688,0.7942505,0.068115234,-0.47369385,0.3743286
291035,1007.728,1008.3484,7.9101562,1.2070312,-0.453125,0.37072754,-0.7668457,0.15771484,0.49957275,241330.0,1007.34644,1009.1919,-7.90625,7.1914062,-3.9140625,0.81292725,0.05480957,-0.49383545,0.30371094
291055,1007.6843,1008.3611,7.5664062,1.015625,-3.515625,0.39172363,-0.7770996,0.18164062,0.45794678,241350.0,1007.35205,1009.18896,-8.0625,7.4179688,-4.1054688,0.8240967,0.053222656,-0.5006714,0.25958252
291075,1007.6736,1008.4187,7.3671875,0.859375,-4.3984375,0.4116211,-0.7863159,0.19274902,0.41851807,241370.0,1007.3303,1009.23047,-7.6054688,5.1210938,-4.4882812,0.8342285,0.0592041,-0.4970703,0.23120117
291100,1007.6609,1008.46704,6.796875,-1.015625,-4.3984375,0.43304443,-0.79278564,0.20129395,0.37878418,241390.0,1007.3196,1009.2925,-8.2109375,3.78125,-5.0664062,0.84350586,0.064453125,-0.48980713,0.2107544
291120,1007.63965,1008.50073,5.9570312,-1.5898438,-5.0898438,0.4569702,-0.79541016,0.2130127,0.33624268,241410.0,1007.35864,1009.27466,-8.792969,2.7460938,-4.9492188,0.85180664,0.06506348,-0.48492432,0.18707275
291135,1007.62427,1008.5217,5.3789062,-1.8984375,-6.2773438,0.4807129,-0.7955322,0.22747803,0.2904663,241430.0,1007.32153,1009.31836,-8.6328125,2.4765625,-4.875,0.85858154,0.06237793,-0.48291016,0.16027832
291155,1007.54736,1008.4905,5.609375,-1.3632812,-8.1875,0.49987793,-0.7941284,0.24267578,0.24627686,241450.0,1007.3325,1009.3567,-8.0625,2.0585938,-5.984375,0.86468506,0.059509277,-0.48046875,0.1340332
291180,1007.4756,1008.6089,7.4882812,-0.40234375,-11.949219,0.51361084,-0.79193115,0.255188,0.20953369,241470.0,1007.3616,1009.35645,-8.066406,1.75,-6.0976562,0.869812,0.05834961,-0.4751587,0.1194458
291195,1007.4551,1008.60474,8.332031,-2.1640625,-14.128906,0.5165405,-0.78808594,0.269104,0.19921875,241490.0,1007.3374,1009.376,-7.140625,0.75390625,-4.4140625,0.8757324,0.05645752,-0.46502686,0.11669922
291215,1007.5928,1008.6687,6.7578125,-2.7421875,-11.332031,0.51776123,-0.7813721,0.28710938,0.19726562,241515.0,1007.3093,1009.3801,-8.792969,-0.546875,-7.1328125,0.87908936,0.05407715,-0.4593506,0.11517334
291240,1007.6079,1008.6604,5.3789062,-3.390625,-7.1992188,0.5187378,-0.776062,0.29870605,0.19854736,241530.0,1007.33203,1009.36035,-8.40625,-0.01171875,-6.671875,0.87945557,0.05316162,-0.46044922,0.10797119
291255,1007.61475,1008.63354,5.9179688,-2.3945312,-8.613281,0.519104,-0.7732544,0.30389404,0.2006836,241550.0,1007.30005,1009.3672,-8.214844,0.37109375,-6.6367188,0.8781738,0.05255127,-0.46484375,0.099609375
291275,1007.64844,1008.61084,5.7617188,-2.3554688,-7.65625,0.5164795,-0.7727661,0.30718994,0.20422363,241570.0,1007.3362,1009.3728,-7.9101562,1.0976562,-6.1757812,0.87615967,0.05114746,-0.47088623,0.089416504
291295,1007.65137,1008.5935,5.9570312,-2.625,-6.921875,0.5123291,-0.7727661,0.31219482,0.20709229,241595.0,1007.3308,1009.3425,-7.5273438,2.1328125,-5.3320312,0.87353516,0.04949951,-0.47747803,0.08074951
291320,1007.5989,1008.55615,6.1484375,-2.4726562,-7.0429688,0.50738525,-0.77246094,0.31866455,0.21044922,241615.0,1007.344,1009.33105,-7.4140625,2.09375,-4.875,0.8706665,0.048095703,-0.4837036,0.07489014
291335,1007.6282,1008.56616,6.1484375,-2.7421875,-6.8828125,0.5018921,-0.77197266,0.3255005,0.21502686,241630.0,1007.3572,1009.35474,-7.5234375,1.8671875,-4.796875,0.868103,0.04736328,-0.4890747,0.07086182
291355,1007.63525,1008.605,6.1484375,-2.9335938,-6.6992188,0.4963379,-0.7715454,0.3312378,0.22052002,241650.0,1007.364,1009.3589,-7.640625,1.6367188,-4.5273438,0.866272,0.04675293,-0.49261475,0.06854248
291375,1007.63794,1008.59814,6.2226562,-3.2382812,-6.5039062,0.49041748,-0.77178955,0.33569336,0.22619629,241675.0,1007.3579,1009.37524,-7.7617188,0.90625,-4.296875,0.8651123,0.045532227,-0.49493408,0.06738281
291395,1007.62695,1008.5532,6.4960938,-3.2773438,-6.1210938,0.48443604,-0.7727661,0.33880615,0.23095703,241690.0,1007.3684,1009.35864,-7.984375,0.79296875,-4.4882812,0.86468506,0.043701172,-0.49597168,0.066589355
291415,1007.6658,1008.5603,6.7226562,-3.3515625,-6.1210938,0.47808838,-0.7749634,0.34033203,0.23461914,241710.0,1007.3601,1009.3733,-8.144531,0.5625,-4.5273438,0.864624,0.04168701,-0.49639893,0.06585693
291435,1007.6333,1008.5657,6.8359375,-3.46875,-6.046875,0.47235107,-0.7781372,0.3390503,0.23754883,241730.0,1007.34814,1009.407,-8.1796875,0.33203125,-4.6054688,0.8648071,0.039489746,-0.49627686,0.064819336
291455,1007.62354,1008.5515,6.9492188,-3.125,-6.1601562,0.4675293,-0.78149414,0.33587646,0.24060059,241755.0,1007.37354,1009.3965,-8.40625,0.140625,-4.375,0.8654785,0.03729248,-0.4954834,0.06341553
291475,1007.65234,1008.5359,6.796875,-3.0859375,-6.1210938,0.46313477,-0.78466797,0.33239746,0.24346924,241770.0,1007.3684,1009.3684,-8.332031,0.29296875,-4.4140625,0.86639404,0.034851074,-0.4942627,0.06213379
291495,1007.63794,1008.49146,6.7226562,-2.8554688,-6.046875,0.45959473,-0.7874756,0.3297119,0.24487305,241790.0,1007.3352,1009.3801,-8.488281,0.41015625,-4.6445312,0.8670654,0.03277588,-0.49328613,0.061401367
291515,1007.6277,1008.5752,6.8398438,-2.703125,-6.3125,0.45666504,-0.78985596,0.32751465,0.24554443,241810.0,1007.33276,1009.3904,-8.527344,0.6015625,-4.9101562,0.86743164,0.030456543,-0.49291992,0.060180664
291535,1007.6399,1008.5796,6.9492188,-3.0078125,-6.46875,0.45440674,-0.7918091,0.3255005,0.24621582,241830.0,1007.30835,1009.3606,-8.3671875,1.0234375,-4.9882812,0.8677368,0.028381348,-0.49261475,0.059326172
291555,1007.65405,1008.55566,6.9882812,-3.3164062,-6.46875,0.45251465,-0.7932129,0.3242798,0.2467041,241850.0,1007.33105,1009.3784,-8.488281,0.87109375,-5.0273438,0.8682251,0.026306152,-0.49188232,0.059448242
291575,1007.6221,1008.54346,6.9492188,-3.2773438,-6.3515625,0.45074463,-0.7944336,0.32373047,0.24682617,241870.0,1007.3428,1009.35254,-8.566406,0.79296875,-4.9492188,0.8685913,0.024353027,-0.49127197,0.060058594
291600,1007.63184,1008.5188,7.3007812,-3.046875,-6.8125,0.44830322,-0.79559326,0.32348633,0.24786377,241890.0,1007.3242,1009.38574,-8.75,0.6015625,-4.9492188,0.8685913,0.021850586,-0.491333,0.06048584
291615,1007.6345,1008.5071,7.2226562,-2.9335938,-6.8515625,0.4440918,-0.7966919,0.32434082,0.2508545,241910.0,1007.3169,1009.3655,-8.7109375,0.640625,-4.9101562,0.86816406,0.019165039,-0.49224854,0.060546875
291635,1007.66455,1008.52905,6.9140625,-2.8554688,-6.5820312,0.4389038,-0.79766846,0.32598877,0.2546997,241930.0,1007.3518,1009.38403,-8.484375,0.44921875,-4.875,0.8674927,0.016601562,-0.49346924,0.060424805
291655,1007.6616,1008.55566,6.640625,-2.8945312,-6.2382812,0.4336548,-0.798645,0.32788086,0.25805664,241950.0,1007.3445,1009.35986,-8.410156,0.5234375,-4.796875,0.8668213,0.013793945,-0.49493408,0.059570312
291675,1007.6633,1008.5315,6.7617188,-2.96875,-6.0820312,0.42938232,-0.7992554,0.33026123,0.26037598,241970.0,1007.3628,1009.364,-8.292969,0.79296875,-4.4882812,0.8661499,0.010559082,-0.49627686,0.058410645
291695,1007.6365,1008.52466,6.8007812,-2.8554688,-6.2382812,0.42645264,-0.7996826,0.33190918,0.26171875,241990.0,1007.3545,1009.3469,-8.066406,0.90625,-4.6445312,0.86553955,0.0076293945,-0.49743652,0.057922363
291715,1007.6604,1008.5193,6.8359375,-2.8554688,-6.3515625,0.4241333,-0.80041504,0.33239746,0.2626953,242010.0,1007.3469,1009.34937,-8.1015625,0.83203125,-4.71875,0.86505127,0.0057373047,-0.49822998,0.058166504
291740,1007.64746,1008.5427,6.8398438,-2.8945312,-6.1601562,0.42211914,-0.8010864,0.3326416,0.26342773,242030.0,1007.35815,1009.3721,-8.214844,0.83203125,-4.71875,0.8644409,0.0041503906,-0.49920654,0.05908203
291755,1007.6472,1008.541,6.71875,-3.0859375,-6.046875,0.42010498,-0.8018799,0.33294678,0.26385498,242050.0,1007.3445,1009.375,-8.1015625,0.79296875,-4.6445312,0.86383057,0.0025024414,-0.5001831,0.060302734
291775,1007.6367,1008.562,6.640625,-3.1601562,-5.96875,0.41882324,-0.8024292,0.333313,0.26379395,242070.0,1007.3396,1009.3523,-8.1015625,0.83203125,-4.71875,0.86328125,0.0004272461,-0.50097656,0.061523438
291795,1007.6526,1008.5598,6.6796875,-3.0078125,-5.96875,0.4182129,-0.8027954,0.333313,0.26367188,242090.0,1007.36743,1009.344,-8.2109375,1.0976562,-4.6054688,0.86279297,-0.0018310547,-0.50164795,0.06237793
291815,1007.6406,1008.5569,6.640625,-2.7773438,-6.2382812,0.4173584,-0.8029785,0.3336792,0.2640381,242110.0,1007.34204,1009.3889,-7.9882812,1.1757812,-4.7578125,0.8621216,-0.0036010742,-0.5027466,0.06359863
291835,1007.6301,1008.5574,6.6445312,-2.9335938,-6.1992188,0.4159546,-0.8031006,0.33428955,0.26489258,242130.0,1007.3511,1009.3816,-8.027344,1.0976562,-4.7578125,0.861084,-0.004699707,-0.5043335,0.06463623
291855,1007.6677,1008.5764,6.6445312,-3.046875,-6.1601562,0.41394043,-0.80358887,0.33502197,0.26586914,242150.0,1007.3413,1009.3779,-7.90625,1.0976562,-4.71875,0.8601074,-0.0056762695,-0.5059204,0.06530762
291875,1007.6692,1008.55225,6.5351562,-3.2382812,-5.96875,0.41174316,-0.8045044,0.3352661,0.26623535,242170.0,1007.3662,1009.39307,-7.90625,1.2539062,-4.6445312,0.8594971,-0.006713867,-0.50683594,0.0657959
291895,1007.66113,1008.5813,6.5664062,-3.2773438,-6.0078125,0.40966797,-0.8060303,0.33422852,0.2659912,242190.0,1007.3799,1009.39014,-7.8710938,1.5195312,-4.4140625,0.859375,-0.007751465,-0.506897,0.066711426
291915,1007.6531,1008.60376,6.53125,-3.2382812,-6.1992188,0.4078369,-0.8078003,0.33239746,0.2658081,242210.0,1007.37427,1009.3921,-7.9453125,1.5195312,-4.3359375,0.8597412,-0.008117676,-0.5060425,0.06842041
291935,1007.6384,1008.58594,6.640625,-3.2773438,-6.2382812,0.40594482,-0.8095703,0.3307495,0.26531982,242230.0,1007.37476,1009.3762,-8.328125,0.87109375,-4.6054688,0.86035156,-0.008483887,-0.5048218,0.06982422
291955,1007.62866,1008.58887,6.7617188,-3.0078125,-6.2382812,0.40429688,-0.81121826,0.32922363,0.26470947,242250.0,1007.33984,1009.3816,-8.4453125,1.0976562,-4.9101562,0.86053467,-0.009338379,-0.50445557,0.07043457
291975,1007.5674,1008.5581,6.8789062,-2.96875,-6.46875,0.4024048,-0.8129883,0.32781982,0.26397705,242270.0,1007.37427,1009.3784,-8.5625,1.1367188,-4.9101562,0.8600464,-0.0099487305,-0.50512695,0.07092285
291995,1007.57764,1008.5547,6.8789062,-3.0078125,-6.46875,0.40020752,-0.8145752,0.3270874,0.2631836,242290.0,1007.36914,1009.354,-8.4453125,1.2148438,-4.8359375,0.85931396,-0.010192871,-0.50634766,0.07147217
292015,1007.5498,1008.5615,6.9882812,-3.2382812,-6.390625,0.39794922,-0.8161621,0.32678223,0.262146,242310.0,1007.3611,1009.34033,-8.4453125,1.328125,-4.6054688,0.8587036,-0.010131836,-0.5072632,0.07244873
292035,1007.49414,1008.59204,6.8007812,-3.390625,-6.3515625,0.39605713,-0.8178711,0.32562256,0.2611084,242330.0,1007.36255,1009.3667,-8.4453125,1.1367188,-4.4882812,0.8586426,-0.009643555,-0.5071411,0.073791504
292055,1007.4829,1008.58496,6.8398438,-3.5820312,-6.2382812,0.39544678,-0.819397,0.3234253,0.26000977,242350.0,1007.3562,1009.3887,-8.675781,0.984375,-4.453125,0.8590088,-0.009277344,-0.50634766,0.07501221
292075,1007.53,1008.5552,6.8007812,-3.5078125,-6.1992188,0.3955078,-0.8206177,0.3215332,0.25842285,242370.0,1007.39307,1009.36694,-8.714844,1.0976562,-4.453125,0.85931396,-0.009155273,-0.5057373,0.076049805
292100,1007.5781,1008.5613,6.71875,-3.2773438,-6.390625,0.395813,-0.8213501,0.3204956,0.25683594,242390.0,1007.38354,1009.364,-8.7109375,1.1757812,-4.6445312,0.8592529,-0.008911133,-0.5057373,0.07659912
292115,1007.5967,1008.5708,6.71875,-3.3164062,-6.46875,0.39624023,-0.8218384,0.31988525,0.25549316,242410.0,1007.3794,1009.35864,-8.671875,1.3671875,-4.6054688,0.85913086,-0.008544922,-0.50598145,0.076660156
292135,1007.58325,1008.54395,6.71875,-3.3164062,-6.5429688,0.3968506,-0.8218994,0.31958008,0.25476074,242430.0,1007.40405,1009.36597,-8.5234375,1.4453125,-4.5664062,0.8592529,-0.0078125,-0.50567627,0.0769043
292155,1007.57666,1008.6123,6.640625,-3.4296875,-6.4296875,0.3980713,-0.8218384,0.3189087,0.25378418,242450.0,1007.3801,1009.38574,-8.484375,1.3671875,-4.453125,0.85980225,-0.0068969727,-0.5046997,0.07714844
292175,1007.57324,1008.57715,6.8007812,-3.4296875,-6.5429688,0.39971924,-0.82177734,0.31799316,0.2526245,242470.0,1007.38477,1009.34644,-8.5625,1.0976562,-4.7578125,0.86047363,-0.0059814453,-0.5036011,0.07702637
292195,1007.5625,1008.58716,6.7617188,-3.2773438,-6.46875,0.4008789,-0.8216553,0.31713867,0.25213623,242490.0,1007.36646,1009.333,-8.671875,1.1367188,-4.8359375,0.8609009,-0.0053100586,-0.5029907,0.076660156
292215,1007.5569,1008.5586,6.8007812,-3.1992188,-6.5820312,0.40161133,-0.82159424,0.3164673,0.2520752,242510.0,1007.36475,1009.34985,-8.636719,1.2539062,-4.9101562,0.8607788,-0.004699707,-0.50323486,0.07611084
292235,1007.5681,1008.5735,6.7226562,-3.1601562,-6.6601562,0.40185547,-0.82141113,0.3166504,0.2520752,242530.0,1007.3501,1009.33545,-8.449219,1.3671875,-4.71875,0.86053467,-0.0037231445,-0.5036621,0.075927734
292255,1007.57275,1008.573,6.640625,-3.2773438,-6.6210938,0.40222168,-0.82110596,0.31713867,0.25177002,242550.0,1007.3567,1009.34595,-8.3671875,1.2148438,-4.6054688,0.86047363,-0.002746582,-0.5038452,0.075927734
292275,1007.574,1008.55664,6.6054688,-3.2382812,-6.5429688,0.40307617,-0.8208618,0.3171997,0.25128174,242570.0,1007.3474,1009.3445,-8.3671875,1.0976562,-4.5664062,0.86047363,-0.0018310547,-0.50372314,0.076049805
292295,1007.57544,1008.56104,6.5664062,-3.125,-6.46875,0.40423584,-0.82037354,0.31726074,0.25079346,242590.0,1007.354,1009.3716,-8.40625,1.0625,-4.5664062,0.86035156,-0.001159668,-0.5039673,0.076049805
292315,1007.5637,1008.5493,6.53125,-3.125,-6.4296875,0.4053955,-0.8198242,0.31762695,0.2503662,242610.0,1007.36743,1009.3655,-8.371094,1.2148438,-4.6835938,0.85998535,-0.00048828125,-0.5046387,0.076049805
292335,1007.56396,1008.5762,6.53125,-3.125,-6.4296875,0.40618896,-0.81933594,0.31774902,0.25048828,242630.0,1007.3491,1009.3611,-8.183594,1.40625,-4.5664062,0.8596802,0.00048828125,-0.5050659,0.07659912
292355,1007.5808,1008.57007,6.4570312,-3.2382812,-6.2773438,0.40704346,-0.8187866,0.31756592,0.25097656,242650.0,1007.3584,1009.3445,-8.183594,1.1367188,-4.4882812,0.8595581,0.0015258789,-0.50512695,0.07751465
292375,1007.5613,1008.5503,6.4921875,-3.3164062,-6.3125,0.4078369,-0.81829834,0.31750488,0.25152588,242670.0,1007.3418,1009.3511,-8.2109375,1.0234375,-4.375,0.85961914,0.002380371,-0.50494385,0.078308105
292395,1007.552,1008.55444,6.5664062,-3.125,-6.1601562,0.40856934,-0.81781006,0.31750488,0.25183105,242690.0,1007.3452,1009.35425,-8.2109375,0.90625,-4.3359375,0.8595581,0.0032348633,-0.50494385,0.07897949
292415,1007.55884,1008.56616,6.5351562,-3.0078125,-6.2773438,0.4088745,-0.8173828,0.3180542,0.2520752,242710.0,1007.3308,1009.3679,-8.1796875,0.90625,-4.4140625,0.8591919,0.0041503906,-0.5054321,0.07946777
292435,1007.55664,1008.5327,6.453125,-3.046875,-6.1601562,0.4093628,-0.8168335,0.3187256,0.2522583,242730.0,1007.3511,1009.3374,-8.140625,1.0234375,-4.3359375,0.8588867,0.005004883,-0.5058594,0.08001709
292455,1007.56836,1008.5698,6.4179688,-3.1601562,-6.1210938,0.41027832,-0.8163452,0.31884766,0.2520752,242750.0,1007.3616,1009.32935,-8.027344,1.1367188,-4.4140625,0.8588867,0.00579834,-0.5057373,0.08068848
292475,1007.563,1008.56226,6.453125,-3.1992188,-6.2773438,0.41168213,-0.8161621,0.3182373,0.25128174,242770.0,1007.36206,1009.345,-8.1015625,1.2539062,-4.4140625,0.85931396,0.006164551,-0.5048828,0.08148193
292495,1007.5427,1008.5449,6.4921875,-3.1992188,-6.3515625,0.41314697,-0.81622314,0.3170166,0.25012207,242790.0,1007.3103,1009.3633,-8.214844,1.2890625,-4.796875,0.8600464,0.0064086914,-0.50354004,0.082336426
292515,1007.51196,1008.5613,6.6054688,-3.0859375,-6.5429688,0.41418457,-0.8163452,0.31585693,0.24951172,242810.0,1007.3286,1009.36523,-8.253906,1.2539062,-4.875,0.86053467,0.006713867,-0.50250244,0.08312988
292535,1007.52954,1008.552,6.6054688,-2.7773438,-6.46875,0.41430664,-0.8164673,0.31524658,0.24957275,242830.0,1007.3406,1009.3679,-8.25,1.1757812,-4.9101562,0.86083984,0.0072631836,-0.50183105,0.084106445
292555,1007.5725,1008.56226,6.6015625,-2.8164062,-6.46875,0.41394043,-0.8165283,0.3154297,0.2498169,242850.0,1007.3362,1009.32764,-8.25,0.984375,-4.8359375,0.8609619,0.0076904297,-0.5015259,0.08477783
292570,1007.5332,1008.5386,6.6015625,-2.8945312,-6.390625,0.41357422,-0.81658936,0.31585693,0.2498169,242870.0,1007.33496,1009.3508,-8.140625,0.9453125,-4.6054688,0.86120605,0.0079956055,-0.50097656,0.08532715
292595,1007.5476,1008.5481,6.640625,-3.125,-6.3125,0.41375732,-0.8167114,0.3157959,0.24902344,242890.0,1007.3335,1009.354,-8.144531,0.9453125,-4.4882812,0.86187744,0.0079956055,-0.49969482,0.0859375
292610,1007.5488,1008.5322,6.6796875,-3.125,-6.3125,0.41436768,-0.81707764,0.31524658,0.24768066,242910.0,1007.31396,1009.353,-8.2109375,0.9453125,-4.5664062,0.86273193,0.0079956055,-0.49804688,0.08679199
292630,1007.56226,1008.53687,6.7226562,-3.1601562,-6.3125,0.41497803,-0.8175659,0.3143921,0.24597168,242930.0,1007.32544,1009.33105,-8.1796875,0.984375,-4.6445312,0.86376953,0.008117676,-0.4961548,0.087646484
292650,1007.56885,1008.5242,6.6796875,-3.0859375,-6.3515625,0.41558838,-0.81817627,0.31365967,0.24395752,242950.0,1007.3196,1009.3899,-8.328125,0.90625,-4.9101562,0.8647461,0.008178711,-0.49432373,0.08850098
292675,1007.5288,1008.5205,6.6054688,-3.0859375,-6.5039062,0.41589355,-0.8189087,0.31304932,0.24163818,242970.0,1007.34155,1009.31055,-8.371094,1.1367188,-4.9101562,0.86535645,0.007873535,-0.49310303,0.08898926
292690,1007.5403,1008.551,6.640625,-3.0078125,-6.5429688,0.41589355,-0.81951904,0.31280518,0.23999023,242990.0,1007.3308,1009.3423,-8.3671875,1.2890625,-4.9101562,0.86553955,0.0076293945,-0.49267578,0.08959961
292710,1007.54834,1008.5398,6.6054688,-2.96875,-6.6601562,0.41540527,-0.82006836,0.31311035,0.23846436,243010.0,1007.32666,1009.3135,-8.410156,1.2148438,-4.8359375,0.8654175,0.007507324,-0.4928589,0.090270996
292730,1007.5737,1008.5315,6.5664062,-3.125,-6.6953125,0.41479492,-0.8204956,0.3137207,0.23724365,243030.0,1007.32153,1009.3108,-8.371094,1.1367188,-4.875,0.86505127,0.007446289,-0.49334717,0.09069824
292750,1007.531,1008.52856,6.4921875,-3.1601562,-6.578125,0.41430664,-0.8208008,0.3143921,0.23626709,243050.0,1007.2986,1009.33325,-8.332031,1.2539062,-4.8359375,0.8647461,0.0073242188,-0.49383545,0.09106445
292770,1007.53296,1008.5193,6.4140625,-3.2382812,-6.5390625,0.4138794,-0.82110596,0.31488037,0.23522949,243070.0,1007.2964,1009.3535,-8.292969,1.328125,-4.796875,0.8644409,0.0071411133,-0.4942627,0.091552734
292790,1007.5432,1008.5359,6.453125,-3.2773438,-6.578125,0.41351318,-0.82141113,0.31536865,0.23431396,243095.0,1007.3147,1009.3247,-8.25,1.328125,-4.9101562,0.86413574,0.0068359375,-0.49468994,0.09210205
292815,1007.5442,1008.54443,6.375,-3.2382812,-6.65625,0.4130249,-0.82159424,0.31573486,0.23382568,243110.0,1007.33154,1009.3362,-8.2109375,1.3671875,-4.8359375,0.86383057,0.0064697266,-0.49517822,0.0927124
292830,1007.5305,1008.5249,6.3398438,-3.1992188,-6.65625,0.4124756,-0.8218384,0.3161621,0.23345947,243130.0,1007.2905,1009.3508,-8.1796875,1.3671875,-4.8359375,0.86364746,0.006164551,-0.49536133,0.09326172
292850,1007.5386,1008.5303,6.2617188,-3.2773438,-6.6210938,0.41204834,-0.82214355,0.3163452,0.23284912,243150.0,1007.31494,1009.31274,-8.1015625,1.328125,-4.796875,0.8637085,0.00579834,-0.4951172,0.09362793
292870,1007.5642,1008.51904,6.2226562,-3.2382812,-6.6210938,0.4118042,-0.8223877,0.3163452,0.23223877,243175.0,1007.29736,1009.3047,-8.144531,1.4453125,-4.9882812,0.86395264,0.0052490234,-0.49468994,0.09362793
292890,1007.50195,1008.52637,6.2226562,-2.96875,-6.8125,0.411438,-0.8225708,0.3164673,0.2321167,243190.0,1007.32007,1009.2866,-8.140625,1.5195312,-4.9101562,0.8640137,0.005126953,-0.49468994,0.093444824
292910,1007.54443,1008.54395,6.2226562,-3.046875,-6.65625,0.41064453,-0.8226929,0.31695557,0.23260498,243210.0,1007.32886,1009.34106,-8.105469,1.3671875,-4.875,0.86376953,0.005432129,-0.4951172,0.09320068
292930,1007.5657,1008.5647,6.1835938,-3.1601562,-6.578125,0.409729,-0.8226929,0.3178711,0.23303223,243230.0,1007.3369,1009.3242,-8.066406,1.328125,-4.7578125,0.8635254,0.00579834,-0.49560547,0.09277344
292955,1007.5261,1008.532,6.2226562,-3.1992188,-6.4296875,0.40911865,-0.82263184,0.3184204,0.2333374,243255.0,1007.33765,1009.333,-8.0234375,1.1757812,-4.6445312,0.8635864,0.006286621,-0.4956665,0.09234619
292970,1007.54004,1008.542,6.2226562,-3.2382812,-6.3125,0.40875244,-0.8226929,0.31866455,0.23358154,243270.0,1007.29663,1009.3259,-8.027344,1.0625,-4.6445312,0.8637085,0.0068359375,-0.4954834,0.09197998
292990,1007.5366,1008.541,6.2226562,-3.2773438,-6.3945312,0.40863037,-0.8227539,0.3187256,0.23345947,243290.0,1007.32275,1009.3113,-8.0234375,1.0976562,-4.6054688,0.8638916,0.0073242188,-0.49523926,0.091430664
293010,1007.5464,1008.5471,6.3398438,-3.2382812,-6.46875,0.4086914,-0.822876,0.31878662,0.23284912,243310.0,1007.3091,1009.3589,-8.1015625,1.0976562,-4.6445312,0.8640747,0.007751465,-0.49499512,0.09088135
293035,1007.51807,1008.5254,6.2617188,-3.2382812,-6.3945312,0.4086914,-0.82299805,0.3190918,0.23205566,243335.0,1007.32764,1009.31836,-8.140625,1.2890625,-4.6445312,0.8641968,0.008056641,-0.49487305,0.09051514
293050,1007.52515,1008.50806,6.3398438,-3.3164062,-6.390625,0.4086914,-0.8231201,0.31921387,0.23150635,243350.0,1007.3252,1009.33325,-8.183594,1.2148438,-4.6835938,0.8643799,0.008544922,-0.49456787,0.090270996
293070,1007.50244,1008.501,6.3398438,-3.46875,-6.4335938,0.40881348,-0.8230591,0.3192749,0.23138428,243370.0,1007.3069,1009.32446,-8.292969,1.1367188,-4.71875,0.8648071,0.009094238,-0.49389648,0.08996582
293090,1007.5261,1008.56226,6.4140625,-3.5820312,-6.390625,0.4088745,-0.82318115,0.3190918,0.23095703,243390.0,1007.3235,1009.32495,-8.332031,1.0234375,-4.796875,0.8654785,0.009399414,-0.49279785,0.08929443
293110,1007.5122,1008.50464,6.4921875,-3.4296875,-6.6210938,0.40905762,-0.82336426,0.31854248,0.230896,243415.0,1007.2959,1009.2988,-8.410156,1.0625,-4.9101562,0.866272,0.009521484,-0.49157715,0.08850098
293130,1007.5366,1008.5344,6.6445312,-3.390625,-6.7382812,0.40911865,-0.8234253,0.31799316,0.23120117,243430.0,1007.3181,1009.2959,-8.3671875,1.1757812,-4.9882812,0.86694336,0.009460449,-0.49047852,0.08782959
293150,1007.5176,1008.52246,6.53125,-3.2773438,-6.734375,0.40930176,-0.82336426,0.31762695,0.23156738,243450.0,1007.302,1009.3054,-8.292969,1.2148438,-5.0273438,0.8675537,0.0095825195,-0.48950195,0.08721924
293175,1007.5359,1008.5193,6.4921875,-3.1601562,-6.734375,0.40966797,-0.8233032,0.3170166,0.2321167,243470.0,1007.2905,1009.3308,-8.292969,1.2148438,-5.1015625,0.86828613,0.010131836,-0.4883423,0.086364746
293190,1007.54443,1008.5239,6.375,-3.1601562,-6.7734375,0.41003418,-0.8230591,0.31677246,0.23260498,243495.0,1007.3274,1009.3169,-8.2890625,1.1367188,-5.1796875,0.8688965,0.010375977,-0.48742676,0.08569336
293210,1007.52686,1008.5122,6.375,-3.1601562,-6.8554688,0.41033936,-0.82263184,0.31677246,0.23352051,243510.0,1007.3113,1009.323,-8.25,1.2148438,-5.1796875,0.8692627,0.010681152,-0.48693848,0.0847168
293230,1007.51807,1008.5244,6.375,-3.1992188,-6.8867188,0.41033936,-0.82214355,0.31707764,0.23492432,243530.0,1007.32935,1009.3369,-8.253906,1.2890625,-5.0664062,0.8691406,0.011230469,-0.48724365,0.083618164
293250,1007.53516,1008.5403,6.3398438,-3.2382812,-6.6601562,0.41003418,-0.8215332,0.31774902,0.23675537,243550.0,1007.3198,1009.3352,-8.2109375,1.2539062,-4.9492188,0.86883545,0.0119018555,-0.48797607,0.08251953
293270,1007.52295,1008.5427,6.2617188,-3.1992188,-6.4296875,0.40979004,-0.8208008,0.31829834,0.23883057,243570.0,1007.32446,1009.34595,-8.027344,1.1757812,-4.796875,0.8687134,0.012512207,-0.4883423,0.08154297
293290,1007.5115,1008.54834,6.3007812,-3.2382812,-6.3554688,0.40997314,-0.8201294,0.31811523,0.24108887,243590.0,1007.3247,1009.3076,-8.0625,1.0625,-4.71875,0.86883545,0.013000488,-0.4882202,0.08081055
293315,1007.48755,1008.5139,6.3398438,-3.390625,-6.4296875,0.41027832,-0.8195801,0.31726074,0.24359131,243610.0,1007.3113,1009.32227,-8.027344,1.0625,-4.6445312,0.8691406,0.013427734,-0.48791504,0.079956055
293330,1007.511,1008.5315,6.3398438,-3.2773438,-6.3945312,0.4105835,-0.81915283,0.31585693,0.24627686,243630.0,1007.2825,1009.31177,-7.984375,1.0625,-4.71875,0.86938477,0.0138549805,-0.48754883,0.07910156
293350,1007.49854,1008.51,6.3007812,-3.1992188,-6.3515625,0.41101074,-0.8189087,0.31359863,0.24920654,243650.0,1007.28906,1009.31104,-7.9453125,1.0234375,-4.7578125,0.869751,0.014282227,-0.4869995,0.078308105
293370,1007.52026,1008.52686,6.3007812,-3.0859375,-6.3164062,0.41149902,-0.8187256,0.31103516,0.25213623,243670.0,1007.31274,1009.3191,-7.9101562,1.0234375,-4.71875,0.87023926,0.014587402,-0.48632812,0.07751465
293390,1007.5259,1008.5613,6.2617188,-2.9335938,-6.2773438,0.4121704,-0.81866455,0.30804443,0.25494385,243690.0,1007.31445,1009.3164,-7.8671875,1.0976562,-4.8359375,0.8706665,0.014831543,-0.48565674,0.076538086
293410,1007.5322,1008.4966,6.4140625,-2.703125,-6.4296875,0.41296387,-0.8187256,0.30444336,0.2578125,243710.0,1007.3174,1009.2837,-7.9453125,1.0234375,-4.9101562,0.8711548,0.015319824,-0.48492432,0.07574463
293430,1007.54126,1008.5381,6.6054688,-2.6640625,-6.5429688,0.41351318,-0.8186035,0.30114746,0.26104736,243730.0,1007.31836,1009.3179,-7.9453125,1.0234375,-4.9101562,0.871521,0.015930176,-0.48431396,0.07513428
293455,1007.5227,1008.51025,6.5664062,-2.5117188,-6.6171875,0.41394043,-0.81848145,0.29864502,0.26367188,243750.0,1007.32324,1009.3142,-7.984375,0.9453125,-4.875,0.87176514,0.016418457,-0.48388672,0.07476807
293470,1007.4907,1008.5281,6.6054688,-2.5507812,-6.5820312,0.4144287,-0.8185425,0.29577637,0.26593018,243770.0,1007.30884,1009.31055,-7.9492188,0.90625,-4.9492188,0.8718872,0.016845703,-0.48364258,0.07458496
293490,1007.5178,1008.5,6.6445312,-2.5859375,-6.4296875,0.41522217,-0.8187256,0.2925415,0.26776123,243790.0,1007.32935,1009.29785,-7.984375,0.83203125,-4.9882812,0.8720093,0.01727295,-0.48345947,0.074523926
293510,1007.5215,1008.48193,6.6015625,-2.3203125,-6.5429688,0.41589355,-0.8190918,0.28918457,0.2692871,243810.0,1007.31006,1009.29785,-7.9492188,0.87109375,-4.9101562,0.87213135,0.017578125,-0.48327637,0.074645996
293530,1007.53784,1008.5061,6.71875,-2.3945312,-6.390625,0.4165039,-0.81933594,0.28668213,0.27020264,243830.0,1007.3125,1009.3176,-8.1015625,0.75390625,-4.7578125,0.87213135,0.018005371,-0.4831543,0.07495117
293550,1007.5105,1008.49097,6.8007812,-2.4335938,-6.4296875,0.41705322,-0.81951904,0.2849121,0.27062988,243850.0,1007.31445,1009.33716,-8.1015625,0.71484375,-4.875,0.87194824,0.018310547,-0.48339844,0.07531738
293570,1007.50464,1008.4895,6.6445312,-2.4335938,-6.390625,0.4175415,-0.8198242,0.2835083,0.2705078,243870.0,1007.3401,1009.32837,-8.0234375,0.75390625,-4.796875,0.87176514,0.018493652,-0.4837036,0.07574463
293590,1007.5034,1008.4834,6.6015625,-2.4335938,-6.390625,0.41809082,-0.8204346,0.28137207,0.27008057,243890.0,1007.32764,1009.3064,-8.066406,0.984375,-4.875,0.8717041,0.018432617,-0.48376465,0.07623291
293610,1007.5161,1008.49097,6.6015625,-2.4726562,-6.5429688,0.41888428,-0.82110596,0.2786255,0.26971436,243910.0,1007.30273,1009.3301,-8.1796875,1.0234375,-4.71875,0.87194824,0.018066406,-0.4831543,0.07684326
293630,1007.4988,1008.47144,6.6796875,-2.625,-6.5429688,0.41967773,-0.8216553,0.27575684,0.2695923,243930.0,1007.31323,1009.32324,-8.2109375,0.984375,-4.875,0.87249756,0.01751709,-0.4821167,0.07745361
293650,1007.51904,1008.5166,6.6835938,-2.3945312,-6.734375,0.42041016,-0.8220825,0.27337646,0.26965332,243950.0,1007.312,1009.3237,-8.332031,1.0625,-4.875,0.8730469,0.016723633,-0.48101807,0.078125
293670,1007.5112,1008.48413,6.6835938,-2.3554688,-6.7773438,0.4208374,-0.8223877,0.27148438,0.2699585,243970.0,1007.3174,1009.34106,-8.2890625,1.1367188,-5.140625,0.8734131,0.016052246,-0.4802246,0.07904053
293690,1007.52295,1008.5117,6.6835938,-2.1289062,-7.0039062,0.4212036,-0.8225708,0.2705078,0.26989746,243990.0,1007.3137,1009.3489,-8.25,1.0625,-5.1796875,0.8736572,0.0154418945,-0.4796753,0.079956055
293710,1007.53516,1008.49927,6.53125,-2.28125,-7.0,0.4215088,-0.8227539,0.26965332,0.2695923,244010.0,1007.29736,1009.33105,-8.183594,1.1367188,-5.2578125,0.87390137,0.014953613,-0.47906494,0.080566406
293730,1007.5027,1008.4917,6.5664062,-2.28125,-7.1601562,0.42193604,-0.82299805,0.2685547,0.2692871,244030.0,1007.29663,1009.34424,-8.1796875,1.1757812,-5.2929688,0.8743286,0.014465332,-0.47839355,0.08074951
293750,1007.49536,1008.50024,6.53125,-2.28125,-7.1992188,0.42242432,-0.8233032,0.26733398,0.26885986,244050.0,1007.3154,1009.3047,-8.1796875,1.2890625,-5.3320312,0.8746948,0.013977051,-0.47772217,0.080566406
293770,1007.52,1008.46484,6.53125,-2.0898438,-7.2382812,0.42279053,-0.8234253,0.26654053,0.2685547,244070.0,1007.2766,1009.3218,-8.2109375,1.3671875,-5.4101562,0.875,0.013305664,-0.4772339,0.08013916
293790,1007.4907,1008.5051,6.5664062,-1.859375,-7.265625,0.42285156,-0.8234863,0.2662964,0.26861572,244090.0,1007.29785,1009.2981,-8.1015625,1.40625,-5.5234375,0.87506104,0.012512207,-0.4772339,0.079711914
293815,1007.50073,1008.47,6.6054688,-1.8203125,-7.2695312,0.42260742,-0.82354736,0.2664795,0.2687378,244110.0,1007.3013,1009.3208,-8.027344,1.5195312,-5.484375,0.875,0.012023926,-0.47729492,0.07989502
293830,1007.489,1008.48315,6.375,-2.0117188,-7.265625,0.4222412,-0.82366943,0.2666626,0.2687378,244130.0,1007.3015,1009.3235,-7.9492188,1.2148438,-5.3710938,0.875,0.011657715,-0.4772339,0.080444336
293850,1007.4856,1008.54736,6.453125,-2.1289062,-7.1601562,0.42230225,-0.82385254,0.2666626,0.2680664,244150.0,1007.324,1009.30054,-7.9882812,1.1757812,-5.21875,0.87506104,0.011352539,-0.47705078,0.08081055
293870,1007.53784,1008.4773,6.4140625,-2.1640625,-7.078125,0.42248535,-0.8241577,0.26641846,0.2670288,244170.0,1007.302,1009.32935,-8.0625,1.2148438,-5.2578125,0.8751221,0.011291504,-0.47698975,0.08081055
293890,1007.5454,1008.5088,6.453125,-2.0507812,-7.0390625,0.4225464,-0.8245239,0.2659912,0.26611328,244190.0,1007.29614,1009.30786,-8.105469,1.2148438,-5.1796875,0.8748779,0.011291504,-0.47753906,0.080444336
293910,1007.55347,1008.47,6.4140625,-2.0898438,-6.8867188,0.42230225,-0.8248291,0.26574707,0.26586914,244210.0,1007.3059,1009.32983,-7.984375,1.0625,-4.9882812,0.8743286,0.0115356445,-0.47851562,0.079956055
293930,1007.5432,1008.48315,6.3007812,-2.2421875,-6.8164062,0.42193604,-0.8249512,0.26611328,0.26574707,244230.0,1007.29736,1009.334,-7.90625,1.0625,-4.8359375,0.87402344,0.011657715,-0.47930908,0.07910156
293955,1007.5088,1008.5166,6.2617188,-2.3945312,-6.5820312,0.421875,-0.8250122,0.26660156,0.2652588,244250.0,1007.3369,1009.33936,-7.90625,1.0976562,-4.8359375,0.8739624,0.01159668,-0.4794922,0.07836914
293970,1007.53735,1008.48413,6.3007812,-2.3945312,-6.65625,0.42236328,-0.8250122,0.26654053,0.26434326,244270.0,1007.3037,1009.30664,-7.9882812,1.1757812,-4.6835938,0.8741455,0.011413574,-0.47924805,0.07775879
293990,1007.5032,1008.4929,6.3007812,-2.4726562,-6.6210938,0.42303467,-0.82507324,0.2659912,0.26361084,244290.0,1007.3137,1009.28613,-8.027344,1.2148438,-4.7578125,0.87457275,0.011047363,-0.47851562,0.07739258
294010,1007.4873,1008.5095,6.453125,-2.4335938,-6.8164062,0.42358398,-0.8249512,0.26538086,0.26385498,244310.0,1007.3257,1009.3176,-7.984375,1.2539062,-4.9101562,0.8751221,0.011047363,-0.4776001,0.07702637
294030,1007.5149,1008.5205,6.2617188,-2.2421875,-6.8515625,0.42382812,-0.824646,0.26470947,0.26507568,244330.0,1007.28,1009.3042,-8.144531,1.1367188,-5.0273438,0.8755493,0.011291504,-0.4769287,0.07635498
294050,1007.48926,1008.4917,6.2617188,-2.1289062,-6.8828125,0.4241333,-0.8242798,0.26428223,0.26617432,244350.0,1007.30396,1009.2925,-8.027344,1.0625,-5.1015625,0.8759155,0.0115356445,-0.4763794,0.07525635
294070,1007.4961,1008.49634,6.2226562,-2.1289062,-6.9257812,0.42468262,-0.82385254,0.2637329,0.26715088,244370.0,1007.2842,1009.3137,-7.90625,1.1757812,-5.140625,0.87646484,0.0119018555,-0.47558594,0.074035645
294090,1007.50903,1008.48047,6.3007812,-2.0507812,-7.15625,0.4251709,-0.82336426,0.26330566,0.2682495,244390.0,1007.28394,1009.33154,-7.796875,1.2539062,-5.21875,0.8768921,0.012207031,-0.47503662,0.07269287
294110,1007.5049,1008.47437,6.3398438,-1.8203125,-7.0390625,0.42547607,-0.822876,0.26275635,0.26965332,244410.0,1007.2888,1009.3257,-7.71875,1.2890625,-5.2578125,0.87719727,0.012634277,-0.47454834,0.0715332
294130,1007.4983,1008.49805,6.375,-1.78125,-6.9609375,0.42559814,-0.82250977,0.26239014,0.2709961,244430.0,1007.2986,1009.31006,-7.7617188,1.1367188,-5.2929688,0.87750244,0.012939453,-0.47418213,0.07067871
294150,1007.4927,1008.4712,6.3007812,-1.78125,-6.8828125,0.42565918,-0.8222656,0.26202393,0.2720337,244450.0,1007.2737,1009.3384,-7.6835938,0.90625,-5.2929688,0.8778076,0.013183594,-0.47369385,0.06982422
294170,1007.5322,1008.4678,6.375,-1.78125,-6.9257812,0.42596436,-0.8222046,0.2614746,0.27227783,244470.0,1007.3081,1009.30493,-7.6796875,0.9453125,-5.2929688,0.8781738,0.013305664,-0.4730835,0.06921387
294190,1007.52075,1008.4597,6.4140625,-1.859375,-6.9257812,0.42645264,-0.8223877,0.26068115,0.27178955,244490.0,1007.3474,1009.32104,-7.796875,0.9453125,-5.2929688,0.878479,0.01373291,-0.4725952,0.06866455
294210,1007.5132,1008.47095,6.53125,-1.859375,-7.0390625,0.42700195,-0.82263184,0.2600708,0.27069092,244510.0,1007.3191,1009.31714,-7.9101562,0.984375,-5.3320312,0.8786011,0.014343262,-0.47235107,0.06829834
294230,1007.49756,1008.4463,6.5664062,-1.8984375,-7.0039062,0.4274292,-0.822937,0.2597046,0.26953125,244530.0,1007.2993,1009.3032,-8.027344,1.0625,-5.21875,0.87872314,0.015014648,-0.47216797,0.068115234
294250,1007.4768,1008.49146,6.6445312,-2.0507812,-7.0390625,0.42767334,-0.8231201,0.25958252,0.26867676,244550.0,1007.2788,1009.33496,-8.183594,1.0234375,-5.1796875,0.87890625,0.01550293,-0.47180176,0.06829834
294270,1007.47363,1008.459,6.6054688,-2.1289062,-7.15625,0.4276123,-0.8232422,0.2593994,0.26843262,244570.0,1007.3086,1009.30396,-8.1796875,0.90625,-5.21875,0.8790283,0.015563965,-0.47155762,0.06854248
294290,1007.49365,1008.4873,6.6835938,-2.203125,-7.0390625,0.42755127,-0.8234253,0.2592163,0.26843262,244590.0,1007.30396,1009.3374,-8.253906,0.9453125,-5.2929688,0.8791504,0.015319824,-0.47131348,0.06878662
294310,1007.5127,1008.4922,6.6445312,-2.0507812,-7.078125,0.42749023,-0.82354736,0.25891113,0.26837158,244610.0,1007.30615,1009.31714,-8.183594,0.9453125,-5.4101562,0.87927246,0.015075684,-0.4710083,0.06890869
294330,1007.4983,1008.4763,6.6445312,-2.0117188,-7.0820312,0.4274292,-0.82366943,0.25854492,0.26831055,244630.0,1007.2998,1009.30664,-8.1015625,0.9453125,-5.4101562,0.87945557,0.014770508,-0.47076416,0.0690918
294350,1007.4702,1008.49,6.6445312,-1.9375,-7.0820312,0.4272461,-0.82385254,0.25830078,0.2682495,244650.0,1007.3086,1009.3096,-8.0625,0.9453125,-5.3710938,0.87957764,0.014465332,-0.47045898,0.06933594
294370,1007.4978,1008.4795,6.6445312,-1.9375,-7.1953125,0.42694092,-0.82403564,0.25830078,0.2682495,244670.0,1007.29395,1009.3154,-8.1015625,0.9453125,-5.3320312,0.8795166,0.014038086,-0.47058105,0.06939697
294390,1007.4978,1008.45166,6.5664062,-1.9375,-7.1992188,0.42633057,-0.82421875,0.258667,0.2682495,244690.0,1007.3071,1009.29785,-8.0234375,1.0234375,-5.3320312,0.8791504,0.013549805,-0.4711914,0.06970215
294410,1007.5049,1008.47144,6.3398438,-1.9375,-7.1171875,0.42590332,-0.82440186,0.25897217,0.26818848,244710.0,1007.313,1009.3479,-7.90625,1.0976562,-5.2578125,0.87872314,0.013366699,-0.47192383,0.07006836
294430,1007.52,1008.4971,6.3398438,-1.8984375,-7.0820312,0.4255371,-0.8245239,0.25946045,0.26782227,244730.0,1007.30176,1009.33374,-7.9101562,1.0976562,-5.1796875,0.8782959,0.013122559,-0.4727173,0.07055664
294450,1007.4929,1008.5132,6.2226562,-1.9726562,-6.9609375,0.425354,-0.82470703,0.25982666,0.2672119,244750.0,1007.27905,1009.3301,-7.8320312,1.0976562,-5.140625,0.87805176,0.012817383,-0.4730835,0.07092285
294470,1007.4968,1008.50806,6.2617188,-2.1640625,-6.8867188,0.42529297,-0.8250122,0.25964355,0.26654053,244770.0,1007.2937,1009.31665,-7.828125,1.1367188,-5.1015625,0.8779297,0.012390137,-0.47332764,0.07128906
294490,1007.5283,1008.49805,6.2617188,-2.0898438,-6.9257812,0.42510986,-0.82525635,0.2597046,0.26617432,244790.0,1007.2942,1009.2954,-7.828125,1.1367188,-5.0273438,0.8777466,0.011962891,-0.47357178,0.07165527
294510,1007.46606,1008.50464,6.2226562,-2.0898438,-7.0,0.42468262,-0.8253784,0.26000977,0.26611328,244810.0,1007.31836,1009.3242,-7.90625,1.0234375,-5.0664062,0.8775635,0.01159668,-0.47387695,0.071777344
294530,1007.5073,1008.51685,6.109375,-2.0898438,-6.8867188,0.42443848,-0.82562256,0.25994873,0.2658081,244835.0,1007.27856,1009.2988,-7.7617188,1.2539062,-5.0273438,0.8776245,0.011291504,-0.47381592,0.071777344
294550,1007.50024,1008.48486,6.109375,-2.1640625,-6.9609375,0.42456055,-0.82580566,0.25952148,0.26531982,244850.0,1007.3076,1009.2737,-7.8320312,1.2148438,-5.0664062,0.8779297,0.011108398,-0.47320557,0.071899414
294570,1007.4988,1008.5032,6.1484375,-2.0898438,-7.0820312,0.42474365,-0.8260498,0.25909424,0.26470947,244870.0,1007.31396,1009.30664,-7.9101562,1.1367188,-5.1796875,0.8781738,0.011047363,-0.47277832,0.071899414
294590,1007.5093,1008.4829,6.109375,-2.0507812,-7.0390625,0.42474365,-0.82629395,0.2588501,0.2642212,244890.0,1007.32446,1009.2998,-7.90625,1.1367188,-5.21875,0.8782959,0.011047363,-0.4725952,0.0715332
294610,1007.50073,1008.49536,6.1835938,-2.0507812,-7.078125,0.42456055,-0.8265381,0.258667,0.26391602,244915.0,1007.2844,1009.3025,-7.90625,1.1367188,-5.2578125,0.878479,0.011108398,-0.47229004,0.07086182
294630,1007.50146,1008.5093,6.2226562,-2.0507812,-7.1210938,0.42437744,-0.8267212,0.25854492,0.26379395,244930.0,1007.3076,1009.2737,-7.90625,1.1367188,-5.21875,0.8787842,0.011291504,-0.47192383,0.07019043
294645,1007.50244,1008.4773,6.1835938,-2.0898438,-7.1210938,0.42437744,-0.82696533,0.25805664,0.2635498,244950.0,1007.3203,1009.3462,-7.9882812,1.1367188,-5.140625,0.87908936,0.0115356445,-0.47149658,0.06945801
294670,1007.4968,1008.51196,6.2226562,-2.0117188,-7.1171875,0.42437744,-0.82714844,0.25769043,0.26324463,244970.0,1007.2969,1009.3076,-7.9492188,1.0625,-5.2578125,0.87927246,0.01184082,-0.4711914,0.06866455
294685,1007.4988,1008.4844,6.3007812,-2.0117188,-7.1953125,0.42437744,-0.8274536,0.25720215,0.26281738,244995.0,1007.28296,1009.3218,-7.984375,1.0976562,-5.2578125,0.8793335,0.012268066,-0.4711914,0.067871094
294705,1007.468,1008.46387,6.3398438,-2.0507812,-7.1953125,0.42437744,-0.8277588,0.25665283,0.26245117,245010.0,1007.28906,1009.33276,-7.984375,1.1367188,-5.21875,0.87939453,0.0126953125,-0.47113037,0.06732178
294730,1007.4739,1008.47974,6.3007812,-2.0117188,-7.1210938,0.4243164,-0.828125,0.2559204,0.26208496,245030.0,1007.2905,1009.3367,-7.9453125,1.0976562,-5.140625,0.8796387,0.013061523,-0.47076416,0.06695557
294750,1007.49585,1008.46436,6.2617188,-2.1289062,-7.078125,0.42443848,-0.8284302,0.255188,0.2616577,245050.0,1007.2942,1009.28735,-8.0234375,1.0625,-5.1796875,0.8800659,0.013366699,-0.47003174,0.06665039
294765,1007.50806,1008.4968,6.3007812,-2.1289062,-7.1210938,0.42468262,-0.82855225,0.2546997,0.26135254,245075.0,1007.2717,1009.33057,-8.140625,1.0234375,-5.3320312,0.8803711,0.013671875,-0.46948242,0.06616211
294785,1007.4612,1008.48926,6.3398438,-2.0507812,-7.2382812,0.4248047,-0.8286743,0.25421143,0.26123047,245090.0,1007.3064,1009.28735,-8.1015625,1.0625,-5.3710938,0.88049316,0.013977051,-0.46923828,0.06555176
294810,1007.4612,1008.50854,6.3398438,-2.0117188,-7.3085938,0.42468262,-0.8286743,0.25427246,0.26141357,245110.0,1007.3032,1009.32886,-7.984375,1.1367188,-5.3710938,0.8805542,0.014343262,-0.46923828,0.06512451
294825,1007.4868,1008.5044,6.4140625,-1.9726562,-7.3046875,0.4244995,-0.8286133,0.25445557,0.26171875,245130.0,1007.3457,1009.31226,-7.984375,1.0976562,-5.3710938,0.8807373,0.014831543,-0.4689331,0.06500244
294845,1007.4983,1008.4971,6.3398438,-1.9375,-7.1992188,0.42443848,-0.8284302,0.2545166,0.26226807,245155.0,1007.3174,1009.3369,-7.9882812,0.90625,-5.3320312,0.88098145,0.015319824,-0.46844482,0.064941406
294865,1007.5034,1008.50757,6.3398438,-1.9375,-7.1171875,0.42437744,-0.828125,0.25457764,0.26312256,245170.0,1007.31226,1009.2959,-7.9492188,0.87109375,-5.2929688,0.8810425,0.015808105,-0.46832275,0.064941406
294890,1007.5112,1008.4822,6.3398438,-1.8203125,-7.1171875,0.42425537,-0.8277588,0.25482178,0.2644043,245190.0,1007.30396,1009.334,-7.9101562,0.90625,-5.4101562,0.88079834,0.016357422,-0.46881104,0.06488037
294905,1007.5127,1008.5327,6.3007812,-1.8203125,-7.0429688,0.4239502,-0.8273926,0.2553711,0.26550293,245210.0,1007.29736,1009.3386,-7.8671875,0.83203125,-5.2929688,0.8803711,0.017028809,-0.46954346,0.0647583
294925,1007.5127,1008.48486,6.3398438,-1.8984375,-6.9648438,0.4234619,-0.82696533,0.2562256,0.26672363,245235.0,1007.3125,1009.31494,-7.6835938,0.87109375,-5.1796875,0.88012695,0.01751709,-0.47003174,0.064697266
294945,1007.4927,1008.4873,6.2617188,-1.9726562,-6.8164062,0.4230957,-0.8265381,0.256958,0.26782227,245250.0,1007.2866,1009.32153,-7.8007812,0.83203125,-5.140625,0.8800049,0.0178833,-0.4701538,0.064819336
294965,1007.50195,1008.49023,6.3398438,-1.9375,-6.8828125,0.42266846,-0.8262329,0.25756836,0.26898193,245270.0,1007.3196,1009.3071,-7.828125,0.87109375,-5.1015625,0.8798828,0.018432617,-0.47039795,0.06518555
294985,1007.5071,1008.48755,6.375,-1.9726562,-6.8867188,0.42193604,-0.8260498,0.25793457,0.2703247,245290.0,1007.261,1009.3198,-7.8007812,0.6796875,-4.9101562,0.87957764,0.018737793,-0.47088623,0.06549072
295005,1007.52734,1008.5095,6.3398438,-2.1289062,-6.734375,0.42126465,-0.8260498,0.25842285,0.27105713,245315.0,1007.333,1009.3396,-7.8671875,0.71484375,-4.9101562,0.87939453,0.018798828,-0.4711914,0.06591797
295030,1007.4802,1008.4912,6.4140625,-2.203125,-6.6992188,0.42095947,-0.8261719,0.25842285,0.2709961,245330.0,1007.3157,1009.34937,-7.90625,0.71484375,-4.9101562,0.87957764,0.018737793,-0.47076416,0.066345215
295045,1007.5,1008.4956,6.453125,-2.203125,-6.6992188,0.42138672,-0.826416,0.25787354,0.2701416,245350.0,1007.3286,1009.34546,-7.9882812,0.71484375,-5.0664062,0.8800659,0.018676758,-0.46972656,0.066833496
295065,1007.5066,1008.5,6.53125,-2.1289062,-6.8867188,0.4220581,-0.8267212,0.2571411,0.26885986,245370.0,1007.3428,1009.33203,-8.1015625,0.75390625,-5.21875,0.88061523,0.018615723,-0.46868896,0.06719971
295085,1007.5305,1008.5205,6.6054688,-2.1289062,-7.0390625,0.42260742,-0.82702637,0.25665283,0.26739502,245390.0,1007.3093,1009.3362,-8.183594,0.9453125,-5.3710938,0.88098145,0.018371582,-0.46795654,0.06738281
295105,1007.50586,1008.4895,6.6054688,-2.0117188,-7.15625,0.4230957,-0.82733154,0.2565918,0.26586914,245410.0,1007.2932,1009.3418,-8.144531,0.984375,-5.484375,0.8812256,0.018310547,-0.46746826,0.067871094
295125,1007.5342,1008.4824,6.5664062,-2.0117188,-7.234375,0.42352295,-0.8275757,0.25653076,0.26452637,245430.0,1007.3008,1009.3533,-8.183594,0.90625,-5.5234375,0.8814087,0.018188477,-0.46704102,0.068237305
295145,1007.5239,1008.4863,6.5664062,-2.0117188,-7.234375,0.4237671,-0.8277588,0.2565918,0.26342773,245450.0,1007.292,1009.3071,-8.105469,0.9453125,-5.484375,0.88165283,0.018005371,-0.46655273,0.06854248
295170,1007.48755,1008.4702,6.53125,-2.0507812,-7.1992188,0.42388916,-0.82788086,0.256958,0.26239014,245470.0,1007.28564,1009.3074,-8.1015625,0.90625,-5.484375,0.88183594,0.01763916,-0.46618652,0.068603516
295185,1007.4763,1008.46826,6.4921875,-2.0507812,-7.234375,0.42364502,-0.8280029,0.25811768,0.26135254,245490.0,1007.31396,1009.3364,-8.027344,1.0625,-5.5625,0.881897,0.017150879,-0.46606445,0.068603516
295205,1007.5115,1008.47485,6.4921875,-2.0117188,-7.2382812,0.42303467,-0.8280029,0.26019287,0.26031494,245510.0,1007.3152,1009.3345,-8.066406,1.0625,-5.4492188,0.8817749,0.017028809,-0.4663086,0.06896973
295225,1007.4641,1008.5161,6.5664062,-1.9375,-7.1992188,0.42218018,-0.82788086,0.26245117,0.25976562,245530.0,1007.3225,1009.3191,-8.0625,0.87109375,-5.2578125,0.88153076,0.016906738,-0.46673584,0.06951904
295245,1007.4917,1008.4922,6.4140625,-2.28125,-6.7734375,0.42163086,-0.82751465,0.2649536,0.2593994,245550.0,1007.29785,1009.30835,-7.9453125,0.87109375,-5.140625,0.8812866,0.016784668,-0.46704102,0.070373535
295265,1007.51855,1008.5083,6.4140625,-2.3554688,-6.8125,0.42114258,-0.8270874,0.2677002,0.25872803,245570.0,1007.30347,1009.3296,-7.9492188,0.90625,-5.140625,0.8809204,0.016723633,-0.4675293,0.07141113
295285,1007.4895,1008.51685,6.4140625,-2.3945312,-6.8554688,0.42034912,-0.82647705,0.27148438,0.25787354,245590.0,1007.3003,1009.3484,-7.8320312,1.0625,-5.140625,0.8804321,0.016723633,-0.46826172,0.072753906
295305,1007.4568,1008.4949,6.375,-2.3945312,-6.8164062,0.41900635,-0.8257446,0.27697754,0.2565918,245610.0,1007.33203,1009.36914,-7.90625,1.0234375,-5.1796875,0.8796997,0.016662598,-0.4694214,0.07385254
295325,1007.5054,1008.51416,6.3007812,-2.4335938,-6.65625,0.41693115,-0.82476807,0.2841797,0.25512695,245630.0,1007.32227,1009.3484,-7.6054688,1.0976562,-5.1015625,0.87908936,0.016723633,-0.4703369,0.07519531
295345,1007.51587,1008.50464,6.2226562,-2.4726562,-6.5390625,0.41497803,-0.8237915,0.29125977,0.25372314,245650.0,1007.30664,1009.35425,-7.4453125,1.0625,-5.140625,0.87890625,0.016723633,-0.47052002,0.07635498
295365,1007.5049,1008.499,6.1484375,-2.5507812,-6.6171875,0.41308594,-0.822876,0.29785156,0.25201416,245670.0,1007.28516,1009.3157,-7.5234375,0.984375,-5.140625,0.8790283,0.016601562,-0.4701538,0.07696533
295390,1007.4812,1008.5403,6.0703125,-2.703125,-6.5429688,0.41070557,-0.8220825,0.30541992,0.24932861,245690.0,1007.2949,1009.3025,-7.5273438,1.0625,-5.1796875,0.8792114,0.016784668,-0.46984863,0.0770874
295405,1007.5259,1008.5266,6.109375,-2.8164062,-6.4335938,0.40911865,-0.82177734,0.3098755,0.24749756,245710.0,1007.291,1009.3179,-7.640625,1.0234375,-5.0664062,0.87927246,0.017211914,-0.46972656,0.0769043
295425,1007.4922,1008.5327,6.1484375,-2.96875,-6.3164062,0.40704346,-0.82147217,0.3154297,0.24505615,245730.0,1007.31836,1009.3601,-7.6796875,1.0625,-4.9882812,0.87927246,0.017700195,-0.4697876,0.07647705
295445,1007.5039,1008.51904,6.2226562,-2.9335938,-6.3125,0.4050293,-0.821167,0.31982422,0.24353027,245750.0,1007.32544,1009.3242,-7.6054688,0.9453125,-4.9101562,0.8793335,0.018249512,-0.46972656,0.075927734
295465,1007.5332,1008.5459,6.1835938,-3.1992188,-6.1210938,0.4033203,-0.8210449,0.32305908,0.24261475,245770.0,1007.3325,1009.3098,-7.640625,0.87109375,-4.9882812,0.8796387,0.018676758,-0.46929932,0.07501221
295485,1007.5154,1008.5134,6.2617188,-3.2773438,-6.1210938,0.40179443,-0.82092285,0.32543945,0.24224854,245790.0,1007.31323,1009.3169,-7.796875,0.79296875,-5.1015625,0.880188,0.019104004,-0.46844482,0.07397461
295505,1007.5425,1008.5244,6.3398438,-3.3515625,-6.0820312,0.4006958,-0.82092285,0.32666016,0.24261475,245810.0,1007.32056,1009.301,-7.8671875,0.83203125,-5.21875,0.8810425,0.019104004,-0.46710205,0.072631836
295530,1007.5171,1008.54443,6.4960938,-3.5078125,-6.1210938,0.4000244,-0.8210449,0.32635498,0.24365234,245830.0,1007.33545,1009.3152,-7.9453125,0.90625,-5.2929688,0.88201904,0.018798828,-0.46539307,0.07116699
295545,1007.511,1008.58765,6.5351562,-3.46875,-6.2773438,0.3994751,-0.82128906,0.32525635,0.24517822,245850.0,1007.3186,1009.3303,-7.8710938,0.90625,-5.3320312,0.88305664,0.018249512,-0.46374512,0.06951904
295565,1007.51465,1008.5542,6.53125,-3.3515625,-6.4296875,0.3988037,-0.8216553,0.32403564,0.24676514,245870.0,1007.2842,1009.3259,-7.8671875,1.0625,-5.6015625,0.88391113,0.017578125,-0.4623413,0.06774902
295585,1007.4844,1008.5603,6.6054688,-3.2773438,-6.5820312,0.3977661,-0.8220825,0.3232422,0.24810791,245890.0,1007.28613,1009.2908,-7.90625,1.0976562,-5.7148438,0.88464355,0.016845703,-0.4613037,0.06616211
295605,1007.5259,1008.5647,6.7578125,-3.1601562,-6.8164062,0.3963623,-0.82250977,0.32287598,0.24932861,245910.0,1007.3181,1009.2949,-7.828125,1.0625,-5.7929688,0.88531494,0.01586914,-0.46014404,0.0647583
295625,1007.51,1008.5249,6.7226562,-3.1601562,-6.7773438,0.3949585,-0.82299805,0.32244873,0.25042725,245930.0,1007.30396,1009.2988,-7.828125,1.0625,-5.8320312,0.8861084,0.014770508,-0.45880127,0.0635376
295645,1007.51025,1008.5488,6.6445312,-3.0859375,-6.8164062,0.39385986,-0.8236084,0.32165527,0.25115967,245950.0,1007.3345,1009.3296,-7.8320312,1.0976562,-5.984375,0.8869629,0.013671875,-0.45739746,0.0625
295670,1007.5156,1008.53955,6.6445312,-2.96875,-7.0,0.3928833,-0.8243408,0.3204956,0.25183105,245970.0,1007.29297,1009.32324,-7.8320312,1.1757812,-6.0625,0.8875122,0.012756348,-0.45648193,0.061706543
295685,1007.48975,1008.52905,6.6835938,-2.8945312,-7.078125,0.39178467,-0.8250122,0.319458,0.2526245,245990.0,1007.30493,1009.28174,-7.796875,1.2148438,-6.0625,0.88775635,0.012023926,-0.4560547,0.060913086
295705,1007.4883,1008.51904,6.53125,-2.9335938,-6.9609375,0.39050293,-0.82562256,0.31878662,0.253479,246010.0,1007.33325,1009.3015,-7.796875,1.2148438,-5.9453125,0.8878784,0.011352539,-0.45599365,0.0602417
295725,1007.48096,1008.5017,6.53125,-3.0078125,-6.9257812,0.3892212,-0.82598877,0.31896973,0.25402832,246030.0,1007.2888,1009.3323,-7.7578125,1.1367188,-5.6757812,0.8878784,0.010803223,-0.4560547,0.059570312
295745,1007.4861,1008.55054,6.4140625,-3.1601562,-6.734375,0.38806152,-0.82611084,0.31988525,0.25427246,246050.0,1007.27734,1009.32837,-7.7578125,1.0234375,-5.5625,0.8878174,0.010620117,-0.4562378,0.05895996
295765,1007.51953,1008.57666,6.453125,-3.1992188,-6.5820312,0.3873291,-0.8262329,0.32043457,0.25427246,246070.0,1007.31665,1009.3362,-7.796875,1.0234375,-5.484375,0.8876343,0.010803223,-0.456604,0.058532715
295785,1007.53296,1008.5376,6.4960938,-3.3515625,-6.46875,0.38690186,-0.826355,0.32061768,0.25421143,246090.0,1007.3042,1009.3291,-7.90625,0.79296875,-5.4101562,0.88739014,0.011169434,-0.45721436,0.0579834
295805,1007.50024,1008.5354,6.453125,-3.4296875,-6.3125,0.3866577,-0.82647705,0.32073975,0.25408936,246110.0,1007.3345,1009.3186,-7.71875,0.90625,-5.3320312,0.887146,0.011169434,-0.4578247,0.057006836
295825,1007.52295,1008.5408,6.4570312,-3.46875,-6.2773438,0.3864746,-0.82647705,0.3213501,0.25354004,246130.0,1007.3301,1009.3281,-7.7226562,0.9453125,-5.2929688,0.88708496,0.010986328,-0.45806885,0.056152344
295845,1007.5178,1008.5803,6.4140625,-3.4296875,-6.2773438,0.3862915,-0.82647705,0.32196045,0.25305176,246150.0,1007.3281,1009.3098,-7.640625,1.0625,-5.2578125,0.88720703,0.0107421875,-0.4578247,0.055664062
295865,1007.54175,1008.5315,6.4140625,-3.390625,-6.2382812,0.38623047,-0.8265381,0.32183838,0.25305176,246170.0,1007.30054,1009.3364,-7.7578125,1.0234375,-5.2929688,0.8874512,0.010559082,-0.45739746,0.055541992
295885,1007.50244,1008.53467,6.375,-3.4296875,-6.2382812,0.38604736,-0.82666016,0.32147217,0.25354004,246190.0,1007.30786,1009.3345,-7.7617188,0.79296875,-5.3320312,0.8876953,0.010314941,-0.4569702,0.05517578
295905,1007.4878,1008.5215,6.4140625,-3.4296875,-6.2382812,0.38580322,-0.8265381,0.32147217,0.25427246,246210.0,1007.29614,1009.2976,-7.6796875,0.87109375,-5.4101562,0.8880615,0.010070801,-0.45629883,0.054748535
295925,1007.5095,1008.57495,6.453125,-3.390625,-6.2382812,0.3857422,-0.826416,0.321167,0.25512695,246230.0,1007.3262,1009.3174,-7.6445312,0.75390625,-5.4492188,0.8886719,0.009765625,-0.45526123,0.054260254
295945,1007.5332,1008.54297,6.4570312,-3.2382812,-6.2773438,0.38598633,-0.826355,0.32037354,0.25604248,246250.0,1007.3013,1009.32886,-7.6054688,0.75390625,-5.6015625,0.88916016,0.009460449,-0.45428467,0.053649902
295965,1007.5281,1008.52783,6.6054688,-3.0078125,-6.5820312,0.38623047,-0.82629395,0.3192749,0.25708008,246270.0,1007.2883,1009.291,-7.5273438,0.90625,-5.7148438,0.88952637,0.009155273,-0.45367432,0.053100586
295985,1007.531,1008.5303,6.640625,-3.0078125,-6.5429688,0.38623047,-0.826416,0.3180542,0.25823975,246290.0,1007.30396,1009.33496,-7.5664062,0.79296875,-5.7539062,0.88983154,0.008911133,-0.45306396,0.052978516
296005,1007.4922,1008.56177,6.6445312,-3.046875,-6.46875,0.38604736,-0.8265991,0.31695557,0.25933838,246310.0,1007.27,1009.3511,-7.6015625,0.6796875,-5.7929688,0.89019775,0.008605957,-0.45239258,0.05279541
296030,1007.50073,1008.4951,6.6445312,-2.96875,-6.390625,0.38586426,-0.8267822,0.31591797,0.2602539,246330.0,1007.2954,1009.31616,-7.640625,0.75390625,-5.7148438,0.890625,0.008239746,-0.45166016,0.052490234
296045,1007.45386,1008.52124,6.6015625,-3.046875,-6.3125,0.3859253,-0.82684326,0.31488037,0.26116943,246350.0,1007.3115,1009.30664,-7.7578125,0.75390625,-5.484375,0.8909912,0.0079956055,-0.45092773,0.052368164
296065,1007.5127,1008.5388,6.6054688,-3.1601562,-6.3125,0.38616943,-0.82684326,0.31384277,0.262146,246370.0,1007.31616,1009.3352,-7.828125,0.71484375,-5.4101562,0.8912964,0.00793457,-0.45031738,0.052246094
296085,1007.532,1008.53394,6.640625,-3.2773438,-6.2773438,0.38635254,-0.8267212,0.31280518,0.2633667,246390.0,1007.31226,1009.3545,-7.828125,0.75390625,-5.3710938,0.89160156,0.007873535,-0.44976807,0.052124023
296105,1007.52515,1008.5178,6.7226562,-3.5078125,-6.0820312,0.38635254,-0.8267822,0.3116455,0.26470947,246410.0,1007.31934,1009.29663,-7.8320312,0.6796875,-5.21875,0.8920288,0.007751465,-0.44891357,0.05206299
296125,1007.50415,1008.51465,6.875,-3.5429688,-5.9296875,0.38623047,-0.82696533,0.31011963,0.26605225,246430.0,1007.32544,1009.35693,-7.9882812,0.33203125,-5.140625,0.89263916,0.007385254,-0.44769287,0.052246094
296145,1007.52905,1008.55493,6.9453125,-3.5820312,-5.6992188,0.38616943,-0.8272705,0.3078003,0.2678833,246450.0,1007.3286,1009.34155,-7.9492188,0.2578125,-5.0273438,0.8935547,0.0065307617,-0.44586182,0.0524292
296165,1007.5393,1008.5032,6.9492188,-3.5820312,-5.625,0.38635254,-0.8276367,0.30493164,0.26983643,246470.0,1007.34985,1009.32153,-7.984375,0.29296875,-5.1015625,0.89471436,0.005126953,-0.4434204,0.052978516
296185,1007.5303,1008.5376,6.8789062,-3.46875,-5.6640625,0.3867798,-0.8279419,0.3015747,0.27191162,246490.0,1007.3003,1009.3252,-7.8710938,0.44921875,-5.0273438,0.8961792,0.0036010742,-0.44049072,0.053344727
296205,1007.5134,1008.53906,6.984375,-3.2773438,-5.7382812,0.3873291,-0.8284302,0.2980957,0.27355957,246510.0,1007.32544,1009.3655,-7.7617188,0.44921875,-5.4492188,0.89782715,0.0018310547,-0.4371338,0.053466797
296225,1007.5161,1008.5276,6.9882812,-3.1601562,-5.8164062,0.3880005,-0.8289795,0.2935791,0.27575684,246530.0,1007.29126,1009.3655,-7.7578125,0.44921875,-5.6015625,0.89941406,-6.1035156e-05,-0.43377686,0.05340576
296245,1007.5,1008.52,7.1054688,-2.7421875,-6.1210938,0.38867188,-0.82977295,0.28771973,0.27868652,246550.0,1007.29736,1009.35645,-7.7226562,0.640625,-5.640625,0.901001,-0.0020751953,-0.43048096,0.053527832
296265,1007.51904,1008.47754,7.140625,-2.6640625,-6.2382812,0.3894043,-0.83044434,0.2819214,0.2816162,246575.0,1007.3137,1009.36035,-7.5234375,0.83203125,-5.8710938,0.9025879,-0.0040893555,-0.42700195,0.05407715
296285,1007.5364,1008.4824,6.9882812,-2.4335938,-6.4296875,0.39074707,-0.8311157,0.2746582,0.28479004,246590.0,1007.29395,1009.292,-7.4140625,0.75390625,-5.90625,0.904541,-0.0060424805,-0.42285156,0.05493164
296305,1007.51245,1008.4868,6.984375,-2.28125,-6.5429688,0.39282227,-0.8317261,0.26641846,0.2880249,246610.0,1007.30273,1009.3479,-7.2578125,0.6796875,-6.0625,0.9067993,-0.0076293945,-0.41778564,0.055603027
296325,1007.4783,1008.47437,6.6054688,-2.1640625,-6.6601562,0.39630127,-0.83184814,0.25720215,0.29125977,246630.0,1007.28076,1009.3574,-7.2578125,0.6796875,-6.1367188,0.9092407,-0.009033203,-0.41235352,0.055725098
296345,1007.4995,1008.4912,6.3398438,-1.8203125,-6.65625,0.40014648,-0.8317261,0.2487793,0.29364014,246655.0,1007.30835,1009.3308,-6.9179688,0.83203125,-6.1367188,0.911499,-0.010437012,-0.40753174,0.05480957
296375,1007.4922,1008.48755,5.9570312,-1.2851562,-6.7734375,0.40771484,-0.83154297,0.2321167,0.29730225,246670.0,1007.2825,1009.3191,-6.609375,1.1367188,-6.0234375,0.9135742,-0.012023926,-0.40307617,0.052978516
296395,1007.4983,1008.46655,5.9179688,-1.2460938,-6.9609375,0.4136963,-0.8312378,0.21948242,0.29956055,246690.0,1007.3157,1009.3279,-6.3359375,1.40625,-6.0976562,0.9157715,-0.013916016,-0.39819336,0.05065918
296415,1007.5012,1008.4878,5.8398438,-0.82421875,-6.8867188,0.42095947,-0.83032227,0.20544434,0.30194092,246710.0,1007.26953,1009.30615,-6.109375,1.5195312,-6.2929688,0.9187622,-0.01574707,-0.39154053,0.047546387
296435,1007.51416,1008.48315,5.1875,-0.05859375,-7.3085938,0.43164062,-0.8276367,0.18914795,0.30480957,246735.0,1007.2976,1009.34644,-5.765625,1.671875,-6.75,0.92315674,-0.016601562,-0.38146973,0.044311523
296455,1007.47705,1008.4988,4.7695312,0.1328125,-7.5,0.4421997,-0.8245239,0.17492676,0.3065796,246750.0,1007.2822,1009.31396,-5.7265625,1.4453125,-7.3242188,0.9289551,-0.016967773,-0.36761475,0.04058838
296475,1007.4929,1008.51,4.6914062,0.24609375,-7.8867188,0.45446777,-0.821167,0.15710449,0.30737305,246770.0,1008.72754,1009.3384,-5.8046875,1.328125,-7.6640625,0.93444824,-0.018005371,-0.3538208,0.036071777
296495,1007.46387,1008.50146,4.7304688,0.8984375,-8.609375,0.4677124,-0.8183594,0.1340332,0.30584717,246790.0,1008.7678,1009.3352,-6.2617188,1.3671875,-8.28125,0.93896484,-0.020446777,-0.34191895,0.031066895
296515,1007.4531,1008.4802,4.8828125,0.8203125,-9.2578125,0.48382568,-0.8128662,0.1105957,0.3048706,246815.0,1008.83154,1009.3369,-5.5351562,2.171875,-8.246094,0.94262695,-0.022949219,-0.3320923,0.025390625
296535,1007.4238,1008.4905,4.6132812,1.7421875,-9.652344,0.50268555,-0.8041992,0.09454346,0.30267334,246830.0,1008.7605,1009.2932,-5.4570312,2.59375,-8.824219,0.94647217,-0.024475098,-0.32122803,0.01953125
296555,1007.4304,1008.46826,4.9609375,3.1210938,-9.6796875,0.5211792,-0.7949219,0.07989502,0.3001709,246850.0,1008.74316,1009.3447,-4.5390625,1.828125,-8.625,0.9503784,-0.02520752,-0.3098755,0.012207031
296585,1007.4436,1008.39307,4.9609375,4.6132812,-10.1015625,0.5363159,-0.78637695,0.059448242,0.30078125,246870.0,1008.7197,1009.3999,-4.84375,1.9804688,-8.855469,0.95477295,-0.026245117,-0.2960205,0.005432129
296595,1007.48926,1008.39307,5.1523438,4.078125,-8.875,0.5531616,-0.7744751,0.026611328,0.30566406,246895.0,1008.7849,1009.36646,-5.1132812,0.44921875,-8.8515625,0.95983887,-0.029907227,-0.27893066,0.00079345703
296615,1007.46924,1008.40454,5.3046875,3.8085938,-8.113281,0.5664673,-0.7642212,-0.0020141602,0.30828857,246910.0,1008.76025,1009.344,-4.7304688,0.83203125,-8.824219,-0.96502686,0.036743164,0.25952148,0.0026245117
296635,1007.48096,1008.4053,5.5351562,3.9257812,-8.53125,0.58239746,-0.75079346,-0.033081055,0.3098755,246930.0,1008.7705,1009.36206,-5.0,0.484375,-9.125,-0.96990967,0.0435791,0.23944092,0.005859375
296660,1007.43896,1008.4158,4.421875,4.8046875,-8.453125,0.600647,-0.73431396,-0.05871582,0.31072998,246950.0,1008.8064,1009.37646,-4.7304688,0.02734375,-8.96875,-0.9746094,0.04864502,0.21826172,0.009643555
296670,1007.43896,1008.4016,4.9609375,5.609375,-8.613281,0.6194458,-0.71655273,-0.083496094,0.30969238,246975.0,1008.9553,1009.3828,-3.65625,0.44921875,-8.015625,-0.979126,0.051940918,0.19616699,0.013244629
296695,1007.4717,1008.3396,5.1875,5.6875,-9.074219,0.63739014,-0.6999512,-0.10443115,0.30474854,246990.0,1008.93384,1009.3884,-3.1210938,-0.1640625,-8.933594,-0.9835205,0.053649902,0.17199707,0.014831543
296715,1007.4783,1008.39746,4.9609375,4.3085938,-7.8828125,0.65966797,-0.6791992,-0.12915039,0.29467773,247010.0,1008.7927,1009.4131,-2.625,-0.703125,-9.203125,-0.98779297,0.05480957,0.14483643,0.015380859
296740,1007.49585,1008.34106,4.5742188,4.8828125,-8.5703125,0.67718506,-0.66156006,-0.14715576,0.28656006,247030.0,1008.7312,1009.42163,-2.5859375,-0.01171875,-10.011719,-0.9915161,0.05810547,0.115722656,0.01361084
296750,1007.49585,1008.3967,4.3828125,4.5390625,-7.4257812,0.6986084,-0.6392822,-0.16345215,0.2767334,247055.0,1008.89966,1009.4209,-3.734375,-0.73828125,-10.355469,-0.99383545,0.06304932,0.09112549,0.007507324
296770,1007.5432,1008.3174,3.8867188,4.4609375,-6.0820312,0.7217407,-0.61621094,-0.17034912,0.26519775,247070.0,1009.20483,1009.4453,-3.390625,-2.4648438,-7.6640625,0.9953003,-0.06677246,-0.07019043,0.0007324219
296790,1007.458,1008.3364,0.09375,7.8710938,-8.0703125,0.743042,-0.592041,-0.17962646,0.25506592,247090.0,1009.23804,1009.5171,-2.546875,-4.0742188,-6.3710938,0.99645996,-0.06732178,-0.050109863,0.005432129
296815,1007.5183,1008.4214,1.0898438,5.3789062,-5.0117188,0.7623291,-0.5692749,-0.1928711,0.2399292,247110.0,1009.11743,1009.44385,-2.2773438,-3.1523438,-7.515625,0.99731445,-0.0680542,-0.02722168,0.006286621
296830,1007.4863,1008.3567,0.40234375,7.296875,-7.4257812,0.77856445,-0.5492554,-0.2109375,0.21820068,247135.0,1009.0332,1009.4226,-0.82421875,-0.6640625,-9.1640625,0.9975586,-0.06976318,-0.0040283203,0.0049438477
296855,1007.48193,1008.3904,-1.3632812,9.253906,-7.5390625,0.7918701,-0.5258179,-0.24029541,0.19689941,247150.0,1008.91724,1009.4126,-2.3945312,-0.47265625,-10.4296875,0.9972534,-0.07232666,0.017150879,0.0022583008
296870,1007.48584,1008.5039,-0.86328125,6.7226562,-7.34375,0.79901123,-0.5084839,-0.26226807,0.1850586,247170.0,1008.7449,1009.4099,-1.6289062,-0.73828125,-10.2734375,-0.9968872,0.07342529,-0.0289917,0.0040283203
296895,1007.5222,1008.53564,-0.05859375,4.3476562,-6.1210938,0.8060913,-0.49780273,-0.2727661,0.1673584,247190.0,1008.48364,1009.4607,-1.0546875,0.41015625,-10.621094,-0.99645996,0.07531738,-0.035949707,0.008056641
296910,1007.5366,1008.478,-0.2890625,3.9257812,-6.4296875,0.81225586,-0.49731445,-0.26800537,0.1451416,247210.0,1008.62524,1009.48145,-2.0117188,-2.7695312,-10.542969,-0.9960327,0.078308105,-0.041625977,0.008300781
296930,1007.4077,1008.6333,1.7421875,3.1210938,-10.144531,0.81622314,-0.5008545,-0.25891113,0.12609863,247230.0,1009.2993,1009.4949,-2.2421875,-3.1914062,-8.5078125,-0.99554443,0.08258057,-0.04498291,0.0056762695
296950,1007.4375,1008.5669,2.6210938,4.421875,-11.6015625,0.8182373,-0.5007324,-0.2545166,0.12225342,247250.0,1009.2837,1009.4619,-2.96875,-4.1484375,-8.28125,-0.9949951,0.08843994,-0.045715332,0.005554199
296970,1007.5134,1008.5078,3.0429688,2.46875,-7.5,0.81744385,-0.49902344,-0.25836182,0.12646484,247270.0,1010.0591,1009.42285,-3.6210938,-2.578125,-7.9804688,-0.9944458,0.09539795,-0.04321289,0.009399414
296995,1007.5232,1008.5488,1.1679688,4.078125,-5.4726562,0.8156738,-0.49664307,-0.26287842,0.13745117,247290.0,1010.324,1009.41064,-3.3125,-1.5820312,-7.3203125,-0.9938965,0.1026001,-0.038146973,0.0154418945
297010,1007.5303,1008.551,0.2109375,4.6523438,-5.6992188,0.8145752,-0.49468994,-0.26263428,0.15081787,247310.0,1010.92065,1009.39307,-3.2734375,-0.625,-7.0546875,-0.99334717,0.1083374,-0.030578613,0.0234375
297030,1007.5188,1008.5388,0.09375,4.1914062,-5.8515625,0.81414795,-0.49517822,-0.25585938,0.16296387,247330.0,1011.62964,1009.5381,-2.3164062,-0.35546875,-7.4765625,-0.9929199,0.113708496,-0.018676758,0.028808594
297050,1007.5249,1008.605,0.28515625,3.8476562,-6.4335938,0.8138428,-0.49591064,-0.246521,0.17602539,247350.0,1012.9946,1009.4536,-2.3945312,-1.390625,-6.7148438,-0.9923096,0.11853027,-0.003540039,0.034606934
297075,1007.50806,1008.5747,0.36328125,3.2734375,-6.234375,0.8133545,-0.49505615,-0.23840332,0.19122314,247370.0,1013.595,1009.9431,-1.7421875,-0.89453125,-7.59375,-0.991333,0.12286377,0.012939453,0.045043945
297090,1007.52246,1008.59717,-0.01953125,4.4609375,-7.5390625,0.8119507,-0.49249268,-0.23040771,0.21234131,247390.0,1014.5078,1009.0393,-0.82421875,-0.1640625,-7.8203125,-0.98999023,0.12591553,0.027832031,0.057678223
297110,1007.5393,1010.08154,-0.51953125,3.0820312,-6.5039062,0.8101196,-0.48876953,-0.22180176,0.23590088,247410.0,1015.37085,1009.8452,0.2890625,0.87109375,-7.6640625,-0.9883423,0.12805176,0.03881836,0.072387695
297135,1007.5327,1011.04126,-1.2460938,4.2304688,-7.0039062,0.8095093,-0.48413086,-0.2111206,0.25634766,247430.0,1017.1804,1009.9004,0.09765625,0.5234375,-7.3984375,-0.9868164,0.12915039,0.047546387,0.08502197
297150,1007.79126,1012.4258,-2.2421875,6.4140625,-6.8828125,0.8105469,-0.4798584,-0.20184326,0.26837158,247450.0,1017.9817,1010.44727,0.5546875,0.5625,-7.9023438,-0.98583984,0.13061523,0.055847168,0.08917236
297175,1010.83325,1015.38354,-1.2070312,4.8046875,-6.8515625,0.81085205,-0.47802734,-0.1965332,0.27453613,247470.0,1020.86816,1011.5095,-0.8984375,-2.6914062,-7.4765625,-0.9852295,0.13305664,0.0637207,0.08703613
297190,1013.6736,1017.6299,-1.2460938,3.4257812,-4.7851562,0.8078003,-0.48077393,-0.18835449,0.2843628,247490.0,1022.6428,1011.792,-1.1679688,-3.4609375,-6.8632812,-0.98358154,0.13677979,0.07287598,0.09222412
297215,1014.4807,1019.21484,-0.44140625,3.8867188,-4.2070312,0.80041504,-0.48675537,-0.1751709,0.30285645,247510.0,1025.8301,1011.1223,-0.9765625,-3.34375,-6.1328125,-0.9805298,0.1416626,0.08502197,0.10595703
297230,1013.5808,1020.0781,-0.51953125,4.578125,-4.7070312,0.79382324,-0.491333,-0.16741943,0.31677246,247530.0,1027.6775,1009.99414,-0.78515625,-1.734375,-5.40625,-0.97662354,0.14715576,0.09832764,0.12200928
297250,1008.9087,1021.11206,-0.17578125,4.9921875,-4.015625,0.7852173,-0.49847412,-0.15905762,0.33117676,247550.0,1030.9316,1007.7737,-0.171875,-0.39453125,-6.0664062,-0.97332764,0.15093994,0.11090088,0.13250732
297270,1014.77466,1022.4275,0.24609375,5.0742188,-4.9335938,0.7786865,-0.50579834,-0.15368652,0.3380127,247570.0,1032.5166,1007.21875,-0.40234375,-0.2421875,-5.1015625,-0.97106934,0.15441895,0.12158203,0.13562012
297295,1014.1206,1021.60425,0.015625,4.6914062,-5.2851562,0.77386475,-0.5118408,-0.14892578,0.34197998,247590.0,1034.9714,1007.6709,-0.9765625,-2.65625,-6.7109375,-0.9689331,0.15710449,0.1307373,0.13928223
297310,1016.6323,1019.91675,-0.40234375,2.8125,-5.6640625,0.76794434,-0.51672363,-0.14550781,0.34942627,247610.0,1037.5549,1010.1543,0.09765625,-0.5078125,-6.9023438,-0.96655273,0.15893555,0.13891602,0.14575195
297330,1016.67456,1020.93604,-0.48046875,4.1171875,-5.7773438,0.7625122,-0.5201416,-0.14282227,0.3572998,247630.0,1039.3542,1012.21313,-0.86328125,-0.1640625,-6.7539062,-0.96435547,0.16052246,0.1459961,0.15130615
297355,1021.78784,1023.3865,0.36328125,5.1875,-6.7734375,0.758728,-0.52349854,-0.13793945,0.3623047,247650.0,1041.7449,1014.19385,-1.9726562,0.1015625,-7.2539062,-0.96313477,0.16113281,0.15185547,0.15289307
297370,1020.9927,1024.7585,1.8164062,5.1523438,-7.15625,0.75671387,-0.52526855,-0.13342285,0.36566162,247670.0,1042.7222,1021.4636,-2.625,0.1015625,-7.5585938,-0.9628906,0.16015625,0.15673828,0.15057373
297390,1021.8716,1027.1841,2.0078125,5.8007812,-7.5390625,0.75634766,-0.5261841,-0.12908936,0.36657715,247695.0,1045.0454,1024.4453,-4.234375,-2.8867188,-9.546875,-0.96325684,0.15905762,0.16033936,0.1453247
297410,1020.6936,1028.5579,2.5078125,6.6835938,-7.1992188,0.7565918,-0.52770996,-0.12445068,0.36547852,247710.0,1046.3721,1029.9409,-4.5,-2.6171875,-9.203125,-0.96307373,0.15917969,0.16418457,0.14221191
297430,1027.5974,1031.5818,3.1601562,6.53125,-7.5390625,0.7572632,-0.52960205,-0.12286377,0.36193848,247730.0,1048.4045,1029.8108,-4.7304688,-1.734375,-9.390625,-0.9630127,0.16003418,0.1663208,0.13909912
297450,1030.4275,1033.0596,3.3515625,7.1054688,-9.296875,0.75897217,-0.5319214,-0.12310791,0.35479736,247750.0,1049.1462,1032.6396,-4.578125,-1.046875,-10.160156,-0.96380615,0.16033936,0.16595459,0.13360596
297470,1035.4905,1036.5164,3.5039062,6.8359375,-9.574219,0.7616577,-0.5328369,-0.12524414,0.3468628,247770.0,1050.3003,1033.737,-4.8085938,-1.0859375,-10.7734375,-0.9650879,0.16125488,0.16290283,0.12658691
297495,1035.6465,1039.6353,3.0039062,7.9492188,-10.484375,0.7659302,-0.53234863,-0.12738037,0.33728027,247790.0,1050.3848,1037.5913,-4.8828125,-1.2773438,-11.7265625,-0.96673584,0.16278076,0.15771484,0.118774414
297510,1038.0981,1041.0881,2.2773438,8.941406,-10.8671875,0.77142334,-0.5303345,-0.1315918,0.32598877,247810.0,1050.8579,1041.9866,-4.4257812,-1.5039062,-12.613281,-0.96875,0.16314697,0.15130615,0.109558105
297535,1039.5972,1043.2148,1.703125,8.828125,-10.4453125,0.77838135,-0.52752686,-0.1350708,0.31243896,247830.0,1051.0642,1044.6663,-4.15625,-2.6171875,-12.691406,-0.9713745,0.16290283,0.14251709,0.097839355
297550,1044.0605,1044.1018,1.3203125,9.824219,-10.375,0.7848511,-0.52508545,-0.13848877,0.29858398,247850.0,1051.0728,1045.7263,-2.5859375,-3.765625,-13.109375,-0.9736328,0.16412354,0.13269043,0.08660889
297570,1045.1279,1045.5325,0.62890625,8.828125,-10.066406,0.79089355,-0.52319336,-0.14172363,0.28411865,247870.0,1051.2156,1046.0593,-2.5078125,-2.7695312,-13.035156,-0.9748535,0.16931152,0.12188721,0.07836914
297590,1047.2805,1047.7578,-0.2890625,8.8671875,-10.417969,0.7972412,-0.5217285,-0.14324951,0.26776123,247895.0,1052.0471,1047.0879,-2.5859375,-0.77734375,-12.4921875,-0.975708,0.1763916,0.111328125,0.06695557
297610,1048.1104,1047.8115,0.0546875,7.71875,-9.9140625,0.80444336,-0.5220947,-0.1383667,0.24725342,247910.0,1052.2815,1048.8711,-2.7382812,-0.77734375,-11.886719,-0.97631836,0.1842041,0.10107422,0.052124023
297630,1047.0178,1048.4099,0.4375,7.5273438,-10.222656,0.8123779,-0.52178955,-0.13098145,0.22497559,247930.0,1052.9832,1049.9346,-3.0820312,-1.0859375,-11.3046875,-0.97650146,0.19146729,0.09088135,0.03881836
297655,1046.1138,1048.7048,-0.40234375,7.71875,-9.917969,0.8192749,-0.5211792,-0.1272583,0.20245361,247950.0,1053.364,1051.6243,-2.46875,-0.96875,-10.6953125,-0.97595215,0.2008667,0.07867432,0.03149414
297670,1049.4592,1049.0972,0.8203125,5.5351562,-9.683594,0.82592773,-0.5186157,-0.12860107,0.17999268,247970.0,1055.3511,1052.1035,-1.5507812,-1.2382812,-10.433594,-0.97473145,0.21221924,0.064575195,0.026550293
297690,1049.1345,1046.4609,0.78515625,4.1171875,-9.2578125,0.83288574,-0.5131836,-0.13317871,0.15875244,247990.0,1055.0544,1053.9607,-0.9375,-1.8125,-10.355469,-0.9734497,0.22271729,0.04864502,0.019897461
297710,1051.0498,1047.4421,-1.515625,2.2773438,-8.691406,0.83984375,-0.50701904,-0.13916016,0.13513184,248010.0,1055.2383,1054.3594,0.2109375,0.484375,-9.894531,-0.9724121,0.23077393,0.032958984,0.010009766
297735,1051.8511,1048.9475,-3.125,4.15625,-9.1875,0.84747314,-0.50006104,-0.14019775,0.10974121,248030.0,1056.2441,1055.9375,-0.59375,0.41015625,-10.0390625,0.9714966,-0.23632812,-0.020141602,0.0013427734
297750,1052.2219,1047.907,-2.5507812,4.1171875,-9.0703125,0.85614014,-0.49169922,-0.13372803,0.08569336,248050.0,1057.6772,1056.8542,-0.86328125,0.06640625,-9.5078125,0.9706421,-0.2401123,-0.013671875,0.0056152344
297770,1052.511,1049.8923,-1.6679688,3.5429688,-9.2265625,0.86486816,-0.4850464,-0.112854004,0.06335449,248070.0,1058.7241,1058.365,-1.1289062,-0.703125,-9.816406,0.9688721,-0.24713135,-0.012817383,0.0
297790,1051.863,1049.6555,-0.2109375,2.546875,-9.609375,0.871521,-0.4810791,-0.08666992,0.038757324,248090.0,1059.5151,1058.9275,-2.3554688,-0.203125,-9.589844,-0.96606445,0.2576294,0.015258789,0.010131836
297815,1053.6072,1048.9167,0.515625,2.203125,-9.53125,0.8758545,-0.4781494,-0.06414795,0.014343262,248110.0,1059.5271,1059.3662,-1.0546875,0.1796875,-9.890625,-0.9627075,0.26965332,0.019348145,0.013122559
297830,1054.4497,1050.5823,0.1328125,-0.9765625,-9.71875,-0.87890625,0.47521973,0.03955078,0.012573242,248130.0,1060.3862,1059.5256,-0.48046875,0.06640625,-11.199219,-0.95977783,0.27978516,0.022277832,0.008911133
297855,1053.8096,1051.3782,1.9726562,-1.859375,-11.2890625,-0.880188,0.4729004,0.01361084,0.037231445,248150.0,1061.0347,1059.8193,-3.1210938,-0.43359375,-11.691406,-0.9574585,0.2868042,0.032226562,0.0026245117
297870,1055.6912,1051.2258,2.96875,-0.25,-11.25,-0.8812866,0.46984863,-0.005554199,0.050476074,248170.0,1063.6323,1059.7097,-6.3007812,-2.1171875,-10.316406,-0.9555054,0.2906494,0.0501709,0.0016479492
297890,1055.189,1051.4016,3.8867188,0.36328125,-10.722656,-0.8831787,0.46691895,-0.014343262,0.041992188,248190.0,1064.8723,1059.8384,-5.6875,-1.1601562,-8.972656,-0.95391846,0.29187012,0.0690918,0.011413574
297910,1058.8972,1052.6565,3.5039062,1.4726562,-9.652344,-0.8850708,0.4647827,-0.018371582,0.017456055,248210.0,1065.1907,1058.7329,-2.203125,0.9453125,-7.2109375,-0.9528198,0.2913208,0.08105469,0.025634766
297935,1065.31,1053.4072,4.2304688,0.9375,-6.5820312,0.88446045,-0.46557617,0.030029297,0.008544922,248230.0,1064.7612,1063.3833,-2.625,2.515625,-7.59375,-0.9524536,0.29248047,0.0803833,0.029052734
297950,1067.6206,1052.3547,3.8867188,1.5507812,-5.7734375,0.8829956,-0.46606445,0.043518066,0.035095215,248250.0,1065.3533,1063.4109,-3.6953125,1.0976562,-5.828125,-0.951416,0.2965088,0.07922363,0.024230957
297970,1063.1919,1053.042,2.9296875,0.01953125,-6.734375,0.88238525,-0.46636963,0.04559326,0.043151855,248270.0,1066.2932,1066.1729,-4.578125,0.140625,-5.9492188,-0.9506836,0.29968262,0.07788086,0.016479492
297995,1064.5767,1053.6675,6.0703125,1.3984375,-8.535156,0.88305664,-0.4650879,0.045166016,0.043273926,248290.0,1066.6853,1066.7852,-6.1484375,-0.6640625,-6.4492188,-0.9505615,0.29962158,0.07946777,0.018554688
298010,1066.8896,1054.1448,5.7617188,1.703125,-9.035156,0.88427734,-0.4616089,0.04638672,0.053100586,248310.0,1068.334,1067.5588,-7.0273438,-0.31640625,-8.285156,-0.95062256,0.29742432,0.08428955,0.028259277
298030,1070.7642,1055.013,5.6484375,1.8164062,-9.0703125,0.8843994,-0.45977783,0.04547119,0.06640625,248330.0,1069.0208,1067.3582,-7.296875,0.984375,-9.277344,-0.9501953,0.2958374,0.09020996,0.03894043
298050,1069.6274,1055.0178,5.9179688,2.125,-9.113281,0.8834839,-0.45959473,0.04333496,0.07989502,248350.0,1070.263,1069.7874,-6.8007812,2.0585938,-9.011719,-0.94921875,0.29541016,0.09716797,0.048095703
298070,1073.1086,1056.2959,6.9882812,1.9335938,-8.4921875,0.881897,-0.4605713,0.043762207,0.09063721,248370.0,1071.1775,1069.8862,-6.453125,2.9765625,-9.128906,-0.9482422,0.29553223,0.10461426,0.051086426
298095,1076.1521,1059.613,7.2578125,1.8945312,-8.191406,0.8803711,-0.4621582,0.048095703,0.09503174,248395.0,1073.0564,1071.4263,-7.7578125,2.9765625,-8.246094,-0.94750977,0.29553223,0.11273193,0.04650879
298110,1074.9954,1058.9426,8.832031,1.4335938,-8.113281,0.87872314,-0.4640503,0.05596924,0.09692383,248410.0,1074.0283,1069.294,-8.0234375,2.515625,-7.2851562,-0.9470215,0.29467773,0.120910645,0.041259766
298130,1073.1885,1058.814,8.675781,1.3984375,-7.9609375,0.8776245,-0.4645996,0.0647583,0.09875488,248430.0,1076.0938,1067.4321,-7.2578125,1.9023438,-7.6640625,-0.9466553,0.29333496,0.12731934,0.03930664
298150,1068.469,1059.3574,6.6445312,1.28125,-7.8085938,0.876709,-0.4645996,0.07244873,0.101501465,248450.0,1076.0637,1068.0835,-5.9960938,1.2539062,-7.5976562,-0.946167,0.29309082,0.13128662,0.040039062
298170,1071.2515,1061.2312,3.9257812,0.40234375,-9.074219,0.87561035,-0.46533203,0.07745361,0.104003906,248475.0,1075.2505,1066.0425,0.9375,-1.1210938,-9.816406,-0.9456177,0.29418945,0.13195801,0.043029785
298190,1073.7793,1061.845,0.09375,-1.4765625,-9.953125,0.875,-0.4656372,0.07751465,0.107299805,248490.0,1075.2546,1069.5837,4.6171875,-1.2382812,-11.269531,-0.9451294,0.29492188,0.12988281,0.053344727
298210,1074.1819,1065.884,-4.5390625,-1.78125,-12.058594,0.8757324,-0.46411133,0.07092285,0.11242676,248510.0,1075.626,1074.0938,4.6171875,-0.625,-12.613281,-0.9454346,0.29406738,0.12536621,0.06286621
298230,1071.6797,1063.533,-2.96875,-0.7109375,-12.863281,0.8770752,-0.461792,0.0637207,0.115722656,248530.0,1076.1079,1073.5425,2.9296875,-0.39453125,-12.957031,-0.946167,0.29229736,0.121520996,0.06774902
298250,1070.8369,1066.7412,-0.51953125,1.7421875,-11.449219,0.87823486,-0.46002197,0.060180664,0.11621094,248555.0,1077.3113,1076.0979,-2.125,-0.77734375,-10.886719,-0.94696045,0.29119873,0.119018555,0.06549072
298270,1077.1702,1069.5283,1.0117188,2.3554688,-10.4453125,0.87805176,-0.4607544,0.060913086,0.11383057,248570.0,1077.7588,1072.6948,-2.203125,-2.15625,-9.589844,-0.9476929,0.2902832,0.11828613,0.060668945
298290,1078.9397,1067.979,0.171875,0.78515625,-10.449219,0.87768555,-0.4616089,0.06011963,0.1138916,248590.0,1077.9763,1077.8018,-0.82421875,-2.5,-9.890625,-0.94836426,0.28753662,0.118774414,0.06213379
298310,1079.4534,1066.9929,-0.82421875,1.3984375,-11.253906,0.8781738,-0.46014404,0.057739258,0.117004395,248610.0,1077.6897,1077.4543,0.09765625,-2.7304688,-11.3046875,-0.94903564,0.28375244,0.11999512,0.066223145
298330,1081.0149,1069.6938,-1.2851562,1.5507812,-12.2890625,0.878479,-0.4588623,0.05493164,0.12145996,248635.0,1079.4656,1077.7759,-0.78515625,-1.9648438,-11.4609375,-0.94940186,0.28118896,0.12188721,0.0690918
298350,1079.467,1071.8208,-0.25,2.2382812,-11.328125,0.8775635,-0.45916748,0.05456543,0.12683105,248650.0,1080.2871,1076.894,-1.28125,-2.1171875,-10.84375,-0.9489136,0.2805786,0.12530518,0.0713501
298370,1078.9106,1070.0559,-0.09765625,2.2382812,-10.5625,0.8757324,-0.46051025,0.055786133,0.13378906,248670.0,1081.3267,1079.81,-1.0898438,-1.390625,-10.433594,-0.947876,0.28125,0.13031006,0.07409668
298390,1077.3706,1074.1067,0.36328125,2.125,-10.378906,0.87371826,-0.46209717,0.05847168,0.14001465,248690.0,1081.7964,1077.7483,-1.7421875,-1.6953125,-10.433594,-0.9463501,0.28240967,0.13659668,0.07739258
298410,1075.6948,1073.5139,1.1289062,1.5117188,-10.6015625,0.87145996,-0.4638672,0.061401367,0.14709473,248715.0,1082.124,1076.6587,-1.015625,-0.89453125,-10.238281,-0.9449463,0.2824707,0.1428833,0.08294678
298430,1078.1653,1072.2996,0.78515625,0.8984375,-10.339844,0.8695679,-0.4645996,0.064086914,0.15441895,248735.0,1081.842,1076.5002,-0.671875,-0.5078125,-10.503906,-0.94415283,0.28179932,0.1472168,0.08679199
298450,1080.7607,1074.1006,1.2421875,1.28125,-10.300781,0.86865234,-0.4647827,0.066833496,0.15808105,248750.0,1082.3855,1076.2339,-1.0546875,-1.046875,-10.5,-0.9440918,0.28070068,0.1494751,0.08685303
298470,1083.209,1077.1931,0.859375,2.125,-10.2578125,0.868103,-0.46472168,0.068481445,0.16052246,248770.0,1082.1992,1080.0437,-1.359375,-1.7734375,-10.355469,-0.94403076,0.28033447,0.1506958,0.08654785
298490,1083.4407,1076.054,0.8203125,2.1640625,-10.566406,0.86761475,-0.46514893,0.06829834,0.1618042,248795.0,1082.9814,1081.1716,-1.7421875,-1.9257812,-9.9296875,-0.9437256,0.28112793,0.15106201,0.08685303
298510,1081.8584,1075.1057,1.1289062,1.78125,-10.296875,0.86694336,-0.4661255,0.068481445,0.16259766,248810.0,1082.7739,1080.9998,-1.6289062,-1.1210938,-10.390625,-0.94317627,0.28222656,0.15167236,0.08831787
298530,1080.6191,1075.3362,1.1289062,1.703125,-10.261719,0.866272,-0.46697998,0.06915283,0.16333008,248830.0,1083.3328,1078.4155,-1.28125,-0.703125,-10.394531,-0.9429321,0.2822876,0.1529541,0.08807373
298550,1080.6902,1075.7566,1.1289062,1.8164062,-10.800781,0.8657837,-0.46746826,0.07122803,0.1638794,248850.0,1083.3064,1079.0242,-1.4765625,-1.3125,-10.5,-0.9430542,0.2814331,0.15423584,0.08721924
298570,1079.1633,1075.6997,1.3984375,2.2382812,-10.5625,0.86499023,-0.46783447,0.07446289,0.16546631,248875.0,1083.1785,1078.801,-2.46875,-1.390625,-10.234375,-0.94281006,0.28100586,0.15618896,0.088378906
298590,1080.7043,1077.9907,1.203125,2.0859375,-10.644531,0.86395264,-0.4683838,0.07635498,0.16833496,248890.0,1083.5378,1080.7385,-2.3945312,-1.390625,-10.5390625,-0.9420166,0.28167725,0.1586914,0.090148926
298610,1081.8008,1076.3691,1.703125,1.7421875,-10.683594,0.862854,-0.4694214,0.07733154,0.17071533,248910.0,1083.2583,1083.0579,-2.4335938,-1.46875,-10.3515625,-0.94091797,0.28277588,0.16088867,0.09362793
298630,1082.1794,1076.7483,1.8554688,2.3164062,-10.683594,0.86157227,-0.47052002,0.078063965,0.17364502,248930.0,1083.2576,1081.6199,-2.3945312,-1.4296875,-10.65625,-0.9397583,0.28381348,0.16357422,0.09802246
298650,1082.5464,1076.8796,1.7421875,2.1640625,-10.988281,0.8602905,-0.47155762,0.078186035,0.17730713,248950.0,1082.1055,1083.0298,-2.4335938,-0.9296875,-11.425781,-0.9385376,0.2849121,0.16607666,0.10180664
298670,1081.3911,1078.2563,1.3984375,2.2773438,-11.332031,0.8590088,-0.4725952,0.07873535,0.18048096,248970.0,1082.3813,1080.633,-2.203125,-0.77734375,-11.347656,-0.9375,0.2866211,0.1685791,0.10284424
298690,1080.8982,1078.03,2.1640625,1.9726562,-11.140625,0.85687256,-0.47503662,0.079956055,0.18347168,248990.0,1082.2578,1080.8933,-2.6640625,-1.3515625,-10.886719,-0.93640137,0.2883911,0.1708374,0.103759766
298710,1078.8108,1076.7598,2.5859375,1.703125,-10.8359375,0.85461426,-0.47766113,0.080566406,0.18707275,249010.0,1081.3069,1078.6841,-2.4335938,-0.5859375,-10.582031,-0.9352417,0.2897339,0.17376709,0.105529785
298730,1078.2795,1076.4795,2.7382812,1.5507812,-10.871094,0.85253906,-0.4794922,0.08239746,0.19110107,249030.0,1082.1279,1077.9614,-1.9335938,-0.203125,-10.3125,-0.93463135,0.2897339,0.17687988,0.10626221
298750,1079.7739,1076.8706,2.7382812,1.3984375,-10.4140625,0.85095215,-0.4807129,0.08526611,0.19354248,249050.0,1081.5886,1080.9863,-1.8203125,-0.2421875,-9.855469,-0.9348755,0.28833008,0.17871094,0.10430908
298770,1080.4482,1077.1196,2.3945312,1.9335938,-9.4921875,0.8502197,-0.48150635,0.08807373,0.19372559,249070.0,1081.5569,1080.8552,-1.9335938,-0.6640625,-9.050781,-0.9361572,0.28668213,0.17785645,0.0993042
298790,1079.688,1075.4768,1.5117188,1.9726562,-8.4921875,0.85040283,-0.48205566,0.0881958,0.19140625,249090.0,1081.3213,1079.8481,-2.0507812,-1.0859375,-8.3984375,-0.9376221,0.28601074,0.17462158,0.09234619
298805,1079.2461,1075.7725,1.4726562,1.8554688,-8.609375,0.8508301,-0.48266602,0.08648682,0.18878174,249110.0,1080.6172,1078.8208,-2.3554688,-1.1992188,-8.5078125,-0.93859863,0.28570557,0.17279053,0.08654785
298825,1078.6626,1076.2483,1.625,2.0078125,-8.53125,0.8508911,-0.48339844,0.0859375,0.18676758,249130.0,1082.1238,1078.3083,-2.2773438,-1.1210938,-8.125,-0.93878174,0.2854004,0.17456055,0.08215332
298850,1076.9192,1075.7944,1.3984375,1.8164062,-7.7304688,0.8498535,-0.48480225,0.08892822,0.18652344,249150.0,1081.9463,1077.2341,-1.8203125,-0.5859375,-7.5546875,-0.93829346,0.28533936,0.17907715,0.077819824
298865,1077.6289,1075.6155,1.3984375,1.2421875,-6.9257812,0.84820557,-0.48687744,0.09484863,0.18560791,249170.0,1082.9763,1076.9697,-1.3203125,-0.2421875,-6.8984375,-0.9378052,0.2855835,0.18371582,0.07269287
298885,1078.9949,1075.262,1.78125,0.9765625,-6.3515625,0.84680176,-0.48937988,0.099487305,0.18304443,249190.0,1083.335,1077.065,-1.3203125,-0.5078125,-5.8320312,-0.9378662,0.28607178,0.18444824,0.06793213
298905,1078.4893,1076.3943,1.9335938,0.4765625,-6.0820312,0.8460083,-0.4918213,0.099121094,0.18035889,249210.0,1083.8958,1076.0366,-1.703125,-0.47265625,-5.9453125,-0.9384155,0.28637695,0.18164062,0.06561279
298930,1077.4326,1075.7993,2.0078125,0.28515625,-6.4335938,0.8457031,-0.49365234,0.09442139,0.17932129,249230.0,1084.2341,1076.9324,-2.4335938,-0.35546875,-6.1367188,-0.93878174,0.28674316,0.17889404,0.06707764
298945,1077.5288,1075.7354,2.0859375,0.4765625,-6.8515625,0.84539795,-0.49438477,0.09124756,0.18048096,249250.0,1085.1514,1075.561,-2.46875,0.37109375,-6.9375,-0.93847656,0.28692627,0.17858887,0.07080078
298965,1078.0515,1075.8406,1.8945312,0.9375,-7.2382812,0.84472656,-0.4946289,0.09020996,0.18334961,249270.0,1085.831,1076.2766,-2.0507812,-0.08984375,-8.019531,-0.9378662,0.28631592,0.18054199,0.076171875
298985,1076.4851,1076.155,1.703125,1.5117188,-8.0,0.8442383,-0.49383545,0.09033203,0.1876831,249290.0,1086.4563,1076.615,-2.5078125,0.37109375,-8.2421875,-0.93725586,0.28552246,0.1829834,0.08062744
299005,1079.7102,1076.5728,2.9296875,2.0078125,-7.9648438,0.84381104,-0.49346924,0.09057617,0.19049072,249310.0,1087.3105,1075.6257,-3.4296875,0.5625,-8.3203125,-0.9369507,0.28546143,0.18475342,0.08068848
299025,1080.5356,1077.6951,4.2304688,1.78125,-7.8828125,0.8432007,-0.49420166,0.09124756,0.19091797,249330.0,1087.9409,1072.561,-4.2695312,0.37109375,-8.019531,-0.9369507,0.2855835,0.1852417,0.07897949
299045,1082.1768,1077.5415,4.7304688,1.3203125,-8.113281,0.84277344,-0.49493408,0.09020996,0.19128418,249350.0,1087.7373,1076.5854,-4.3867188,0.33203125,-8.050781,-0.93725586,0.28503418,0.18414307,0.08013916
299070,1083.3638,1079.2786,4.6523438,0.9375,-8.765625,0.8430176,-0.49468994,0.08654785,0.19262695,249370.0,1088.249,1071.0012,-3.7734375,0.5234375,-8.703125,-0.93774414,0.28320312,0.18249512,0.084228516
299085,1084.0415,1079.2776,3.7734375,1.359375,-8.84375,0.8433838,-0.49414062,0.085876465,0.19274902,249390.0,1088.9253,1073.2957,-2.8164062,0.75390625,-9.2734375,-0.93865967,0.28045654,0.18145752,0.085632324
299105,1083.9165,1078.8142,2.1992188,2.2382812,-8.996094,0.8440552,-0.49316406,0.08734131,0.19165039,249410.0,1089.3552,1080.648,-1.8203125,0.37109375,-9.511719,-0.9398804,0.27746582,0.18060303,0.08355713
299125,1081.0032,1078.5396,1.1679688,1.9726562,-9.453125,0.84521484,-0.49188232,0.08892822,0.18920898,249430.0,1088.8232,1080.3364,-0.28515625,-1.734375,-10.042969,-0.9411011,0.27496338,0.17907715,0.08190918
299145,1080.9277,1079.5813,0.32421875,1.7421875,-10.7578125,0.84710693,-0.48986816,0.09008789,0.18530273,249450.0,1088.9097,1080.8062,0.2890625,-2.0039062,-11.1171875,-0.942688,0.27209473,0.17529297,0.08129883
299165,1082.9026,1078.904,0.1328125,2.4296875,-11.253906,0.8496094,-0.48754883,0.089416504,0.18023682,249470.0,1088.4863,1082.2222,-0.74609375,-2.15625,-11.691406,-0.9450073,0.2692871,0.16833496,0.078186035
299185,1084.3826,1081.0598,0.9765625,3.5039062,-11.5234375,0.8521118,-0.4859619,0.08660889,0.1739502,249490.0,1088.5603,1083.2585,-2.2421875,-2.3476562,-11.265625,-0.94750977,0.26727295,0.16009521,0.07196045
299210,1084.2441,1081.0691,1.8164062,3.0820312,-10.105469,0.8533325,-0.48608398,0.08325195,0.16906738,249510.0,1089.8447,1083.0393,-3.390625,-2.1953125,-9.472656,-0.9491577,0.26635742,0.15411377,0.065979004
299225,1084.8469,1081.6074,1.78125,2.546875,-9.839844,0.85375977,-0.48675537,0.08001709,0.16674805,249530.0,1090.5149,1085.1707,-2.8554688,-1.8125,-9.316406,-0.94976807,0.26574707,0.15185547,0.06518555
299245,1085.249,1081.8047,1.6640625,2.3554688,-9.839844,0.85388184,-0.4866333,0.07879639,0.16674805,249550.0,1090.6277,1084.5198,-2.2773438,-1.5039062,-9.625,-0.9500122,0.26434326,0.15161133,0.06781006
299265,1085.0349,1082.6279,1.359375,2.46875,-9.875,0.85388184,-0.4862671,0.07891846,0.16784668,249570.0,1090.2288,1085.3105,-2.2421875,-1.6953125,-9.777344,-0.95007324,0.26312256,0.15167236,0.07116699
299285,1084.9275,1083.2217,1.28125,2.546875,-9.996094,0.8538208,-0.4857788,0.078430176,0.17004395,249590.0,1090.7571,1085.4382,-1.8203125,-1.5820312,-10.0390625,-0.9500122,0.26239014,0.15197754,0.07470703
299305,1085.2832,1083.3591,1.5898438,2.6601562,-10.035156,0.85369873,-0.48547363,0.07702637,0.17218018,249610.0,1090.252,1086.1553,-2.0859375,-1.7734375,-10.0390625,-0.9499512,0.26184082,0.15136719,0.078308105
299325,1085.2458,1083.7803,2.0859375,2.6210938,-10.144531,0.85357666,-0.48547363,0.074279785,0.17382812,249630.0,1090.0137,1086.4634,-2.4335938,-1.5429688,-10.160156,-0.94989014,0.26202393,0.1494751,0.082092285
299350,1085.4583,1083.7427,2.3164062,2.6992188,-10.6015625,0.85357666,-0.48547363,0.07104492,0.17504883,249650.0,1089.687,1089.4902,-2.5859375,-1.2773438,-10.542969,-0.94976807,0.26257324,0.14746094,0.08502197
299365,1085.6013,1084.2561,2.4296875,2.8125,-10.761719,0.8535156,-0.48590088,0.06903076,0.17510986,249670.0,1089.3464,1089.458,-2.546875,-1.1210938,-11.0390625,-0.94976807,0.2631836,0.14581299,0.086364746
299385,1086.3733,1084.3838,2.2382812,2.7382812,-10.910156,0.85339355,-0.4864502,0.06793213,0.17468262,249690.0,1089.2339,1089.1467,-2.3164062,-1.2773438,-11.0390625,-0.94989014,0.2633667,0.14434814,0.08642578
299405,1086.7483,1083.5847,1.9335938,2.7773438,-11.027344,0.8533325,-0.48657227,0.06707764,0.17486572,249710.0,1088.6187,1088.8523,-2.6992188,-1.9648438,-11.15625,-0.95007324,0.2633667,0.1430664,0.08673096
299430,1086.6289,1083.4807,1.625,2.9296875,-11.449219,0.85339355,-0.48608398,0.06506348,0.17675781,249730.0,1088.1533,1088.2722,-2.4335938,-2.0429688,-11.3046875,-0.9499512,0.26397705,0.14202881,0.087768555
299445,1086.5,1083.7175,1.8945312,3.0429688,-11.792969,0.85339355,-0.4857788,0.0635376,0.17803955,249750.0,1087.3511,1087.1765,-2.2421875,-2.0039062,-11.921875,-0.949646,0.26501465,0.14135742,0.08929443
299465,1087.0657,1083.4253,1.8945312,3.1601562,-11.988281,0.85321045,-0.48590088,0.06188965,0.17901611,249770.0,1087.1594,1087.0815,-2.0859375,-1.890625,-12.0,-0.9491577,0.26641846,0.14117432,0.0904541
299485,1087.4304,1083.031,1.703125,3.2734375,-12.0234375,0.85266113,-0.48687744,0.06097412,0.17932129,249790.0,1086.8828,1087.9954,-1.9335938,-1.6953125,-11.8046875,-0.94873047,0.26800537,0.14123535,0.090148926
299505,1086.9753,1081.3291,1.5898438,3.0039062,-11.328125,0.85162354,-0.48858643,0.061157227,0.1796875,249810.0,1086.8291,1087.7117,-2.0507812,-1.6601562,-11.386719,-0.9483032,0.26971436,0.14154053,0.08892822
299525,1086.3616,1081.3562,1.703125,2.8515625,-10.988281,0.85028076,-0.49041748,0.061828613,0.18066406,249830.0,1086.5454,1088.4941,-2.2421875,-1.9257812,-10.6171875,-0.9477539,0.27130127,0.14263916,0.08862305
299545,1084.3267,1081.7097,1.6640625,2.7773438,-10.7578125,0.8487549,-0.4921875,0.062438965,0.18292236,249850.0,1086.7512,1086.8022,-2.203125,-1.6601562,-10.1953125,-0.94677734,0.27313232,0.14471436,0.090026855
299570,1083.4263,1081.0662,1.703125,2.5859375,-9.875,0.84716797,-0.49371338,0.062927246,0.18603516,249870.0,1085.4131,1086.8647,-1.8203125,-0.81640625,-9.933594,-0.9456787,0.27526855,0.14746094,0.09063721
299585,1082.4229,1080.1592,1.8554688,2.3554688,-9.4921875,0.8453369,-0.4956665,0.06365967,0.18896484,249890.0,1085.5422,1083.9617,-1.5507812,-0.203125,-9.5859375,-0.9449463,0.27722168,0.1496582,0.0881958
299605,1082.3542,1079.7312,1.7421875,1.9335938,-9.03125,0.8436279,-0.49780273,0.0647583,0.1906128,249910.0,1084.928,1083.2798,-1.015625,-0.28125,-8.3984375,-0.94470215,0.27893066,0.15100098,0.083618164
299625,1081.2168,1079.5598,1.4335938,1.3984375,-8.6484375,0.8424072,-0.49975586,0.06628418,0.19030762,249930.0,1084.7866,1082.9058,-0.74609375,-0.39453125,-8.019531,-0.9446411,0.27978516,0.15240479,0.07861328
299645,1080.5413,1078.8643,1.203125,1.3203125,-7.6601562,0.8413696,-0.501709,0.06903076,0.18859863,249950.0,1084.3828,1082.5505,-1.0898438,-0.47265625,-7.5195312,-0.94470215,0.2798462,0.15423584,0.0736084
299665,1079.2744,1078.0364,1.4726562,1.3203125,-7.0,0.8400879,-0.50408936,0.07232666,0.18688965,249970.0,1085.0325,1081.8689,-1.703125,-0.6640625,-6.7890625,-0.94451904,0.2800293,0.15679932,0.06976318
299685,1079.3137,1078.5239,1.78125,1.5117188,-6.3515625,0.8381958,-0.5067749,0.07543945,0.18670654,249990.0,1085.4177,1080.3643,-2.9296875,-0.81640625,-5.0234375,-0.94348145,0.28149414,0.16088867,0.068359375
299710,1079.3267,1079.6858,2.3554688,0.66796875,-5.046875,0.8352661,-0.51049805,0.07904053,0.18835449,250010.0,1086.0942,1078.8838,-2.7773438,-0.2421875,-4.7617188,-0.9413452,0.28448486,0.16699219,0.0713501
299725,1078.7358,1080.0974,2.6601562,0.01953125,-4.96875,0.831604,-0.51446533,0.08203125,0.19250488,250030.0,1086.0547,1078.1597,-2.3164062,0.79296875,-4.9101562,-0.93896484,0.28753662,0.17218018,0.07745361
299745,1078.2839,1079.1079,2.890625,-0.48046875,-5.203125,0.8286133,-0.517395,0.08288574,0.19708252,250050.0,1085.8765,1076.635,-1.859375,1.7109375,-5.2929688,-0.93756104,0.2894287,0.17419434,0.08312988
299765,1078.7708,1079.5188,3.3125,-0.3671875,-5.625,0.8272095,-0.5189209,0.081848145,0.19940186,250070.0,1086.3005,1076.2544,-2.1640625,1.5976562,-6.5195312,-0.9375,0.29003906,0.17260742,0.08514404
299785,1078.7507,1079.6355,3.5039062,0.515625,-6.4726562,0.82696533,-0.5195923,0.07952881,0.19958496,250090.0,1087.2073,1077.2861,-3.0820312,0.87109375,-6.75,-0.9382324,0.28979492,0.1685791,0.08544922
299805,1079.4614,1079.0015,4.3085938,0.859375,-6.5820312,0.8272095,-0.51971436,0.07507324,0.1998291,250110.0,1087.5762,1075.7573,-4.4257812,0.1796875,-6.75,-0.93927,0.28863525,0.16394043,0.08734131
299825,1080.5015,1079.0662,4.8046875,1.359375,-6.734375,0.8274536,-0.51934814,0.06915283,0.2019043,250130.0,1088.3938,1074.9473,-5.2304688,-0.2421875,-6.7890625,-0.9399414,0.28692627,0.16021729,0.092163086
299845,1081.2078,1079.8489,4.7304688,1.8554688,-6.8867188,0.8273926,-0.5186157,0.062805176,0.20617676,250150.0,1089.1882,1074.7815,-4.3867188,-0.546875,-7.359375,-0.9403076,0.28466797,0.15820312,0.09899902
299865,1082.6755,1079.0078,3.4257812,2.96875,-7.3867188,0.82733154,-0.51690674,0.05706787,0.21228027,250170.0,1090.179,1073.8213,-4.234375,-0.9296875,-7.59375,-0.9403076,0.28216553,0.1583252,0.10534668
299885,1083.3945,1079.3359,3.1601562,3.5429688,-7.6875,0.82733154,-0.5151367,0.055114746,0.21710205,250190.0,1090.3914,1070.3342,-3.734375,-1.7734375,-8.0859375,-0.9397583,0.2805786,0.16070557,0.11071777
299905,1082.8738,1081.1875,2.2382812,3.7734375,-8.308594,0.8270874,-0.5140381,0.056274414,0.22045898,250215.0,1090.1855,1079.1714,-0.40234375,-2.234375,-10.3515625,-0.93878174,0.28033447,0.16351318,0.115600586
299925,1081.8425,1081.7009,0.36328125,3.3125,-10.640625,0.8267822,-0.513855,0.05822754,0.22131348,250230.0,1089.8674,1078.3271,0.25,-1.9648438,-11.425781,-0.93829346,0.28070068,0.16363525,0.11846924
299945,1083.4021,1082.4573,0.24609375,3.1601562,-11.675781,0.82751465,-0.513916,0.058532715,0.21832275,250250.0,1088.9814,1081.6067,-0.82421875,-1.5429688,-12.609375,-0.939209,0.28094482,0.15893555,0.117126465
299965,1084.8081,1083.3462,0.9765625,3.8476562,-12.519531,0.829895,-0.5131836,0.05706787,0.21130371,250270.0,1088.9092,1083.0881,-2.4335938,-1.6601562,-13.191406,-0.94091797,0.2814331,0.15216064,0.11077881
299985,1086.7659,1084.0051,2.125,3.9648438,-12.636719,0.8319092,-0.51257324,0.055786133,0.20526123,250295.0,1089.4751,1086.3816,-3.5039062,-2.4257812,-12.152344,-0.9421997,0.28222656,0.14764404,0.1038208
300005,1086.8718,1083.6848,2.3945312,3.4648438,-12.0546875,0.8320923,-0.5130615,0.05621338,0.20306396,250310.0,1090.3811,1086.5083,-3.1601562,-2.2734375,-11.15625,-0.94244385,0.28259277,0.14782715,0.10040283
300025,1086.2756,1084.0657,2.125,3.1210938,-11.253906,0.8312988,-0.5142212,0.058166504,0.20281982,250330.0,1091.4348,1087.4543,-3.0078125,-1.890625,-10.355469,-0.94207764,0.2824707,0.1505127,0.100097656
300045,1086.1758,1084.9829,2.1992188,3.2734375,-10.4453125,0.83044434,-0.5152588,0.06097412,0.20288086,250350.0,1090.939,1088.3984,-2.546875,-1.4296875,-9.777344,-0.94177246,0.28289795,0.15246582,0.09899902
300070,1085.8645,1084.1765,2.2773438,2.6601562,-9.3359375,0.8297119,-0.5165405,0.0635376,0.20184326,250375.0,1090.8435,1087.4963,-1.9335938,-1.3125,-9.394531,-0.94158936,0.28411865,0.15289307,0.09649658
300085,1085.6091,1084.636,1.8945312,2.125,-9.4921875,0.8291626,-0.5180664,0.06524658,0.19976807,250390.0,1090.6096,1086.6218,-1.7421875,-1.3125,-9.738281,-0.9414673,0.28497314,0.15240479,0.0960083
300105,1085.206,1084.7251,1.7421875,1.8164062,-9.957031,0.8295288,-0.51831055,0.06402588,0.1977539,250410.0,1089.8135,1086.9675,-2.0117188,-1.4296875,-10.238281,-0.9415283,0.284729,0.15124512,0.09814453
300125,1085.052,1085.1497,1.8945312,2.046875,-10.417969,0.8303833,-0.51782227,0.061462402,0.19628906,250430.0,1089.9539,1087.8457,-2.6992188,-1.3515625,-10.734375,-0.9415283,0.2836914,0.15045166,0.101989746
300145,1084.8423,1084.7434,2.6210938,3.0039062,-11.144531,0.83117676,-0.5170288,0.05895996,0.19592285,250455.0,1088.9575,1087.7949,-3.2734375,-1.4296875,-11.691406,-0.9415283,0.2828369,0.14978027,0.105407715
300165,1084.7329,1084.0195,2.9296875,3.234375,-11.4453125,0.83154297,-0.5165405,0.057128906,0.19628906,250470.0,1088.2864,1087.9136,-2.9296875,-1.3515625,-11.808594,-0.9417114,0.28222656,0.14868164,0.10699463
300185,1084.324,1083.2671,2.8515625,3.4648438,-11.636719,0.83203125,-0.5159912,0.05529785,0.19604492,250490.0,1087.5339,1087.9302,-2.8554688,-1.390625,-11.964844,-0.94226074,0.28173828,0.14691162,0.105895996
300210,1084.4622,1082.3435,2.3164062,3.65625,-11.871094,0.8327637,-0.51568604,0.05444336,0.19384766,250510.0,1087.322,1087.4375,-2.7773438,-1.6953125,-11.964844,-0.9428711,0.28155518,0.14569092,0.10235596
300225,1084.499,1081.6848,1.9335938,3.7734375,-11.75,0.83325195,-0.5158081,0.055847168,0.19091797,250535.0,1086.2346,1087.053,-2.5859375,-2.234375,-11.578125,-0.9433594,0.28118896,0.14624023,0.09777832
300245,1084.2749,1081.8875,1.9726562,3.8476562,-11.40625,0.8331299,-0.5162964,0.0592041,0.18945312,250550.0,1086.1448,1086.7605,-2.5078125,-2.5390625,-10.699219,-0.9437866,0.2808838,0.14782715,0.0925293
300265,1083.1719,1080.9568,1.9335938,3.5820312,-10.7578125,0.8319092,-0.517395,0.06323242,0.19030762,250570.0,1085.5791,1085.54,-2.5078125,-2.3476562,-9.8515625,-0.94384766,0.2810669,0.14886475,0.0892334
300285,1082.5237,1080.4231,1.8554688,2.8125,-9.613281,0.8306885,-0.5181885,0.06549072,0.1928711,250590.0,1085.1016,1084.4707,-2.5859375,-1.9257812,-9.246094,-0.9437256,0.2816162,0.14929199,0.08831787
300305,1081.5012,1079.7651,2.0078125,2.3554688,-9.113281,0.829895,-0.5183716,0.06604004,0.1954956,250615.0,1084.8308,1083.0862,-1.859375,-0.625,-8.933594,-0.9433594,0.2819214,0.1508789,0.08843994
300325,1081.282,1079.3281,1.8164062,2.46875,-8.957031,0.82940674,-0.5180054,0.067871094,0.19781494,250630.0,1084.3054,1084.5217,-1.4765625,-0.96875,-8.628906,-0.94311523,0.28149414,0.15429688,0.086242676
300345,1080.645,1078.6162,1.5898438,2.890625,-8.574219,0.8288574,-0.5180054,0.07171631,0.19873047,250650.0,1084.2861,1082.8572,-1.5507812,-1.7734375,-8.128906,-0.94317627,0.2814331,0.15667725,0.08190918
300365,1079.9446,1078.3279,1.3984375,2.96875,-7.6171875,0.82788086,-0.51916504,0.075927734,0.1984253,250670.0,1084.009,1081.6062,-1.7421875,-1.890625,-7.4414062,-0.94281006,0.28320312,0.15795898,0.07714844
300385,1078.7559,1078.5383,1.625,2.3164062,-6.9648438,0.82611084,-0.5219116,0.07897949,0.19726562,250695.0,1084.5137,1080.4126,-2.4335938,-0.43359375,-5.7890625,-0.94195557,0.286438,0.15930176,0.07305908
300405,1078.3301,1078.6724,2.1640625,1.5117188,-6.1601562,0.82366943,-0.52593994,0.08203125,0.1954956,250710.0,1084.6873,1079.2185,-2.546875,0.2578125,-5.1015625,-0.9406128,0.289917,0.16156006,0.07092285
300425,1077.6414,1078.2402,2.890625,0.28515625,-4.9296875,0.821228,-0.5297241,0.08496094,0.19439697,250730.0,1084.8706,1077.7849,-2.203125,0.79296875,-4.7617188,-0.9393921,0.29260254,0.16418457,0.070495605
300445,1077.594,1078.0217,3.0429688,-0.09765625,-4.6679688,0.8189087,-0.53308105,0.08782959,0.19366455,250750.0,1085.0857,1077.5261,-2.0507812,0.90625,-4.6015625,-0.93865967,0.29431152,0.16516113,0.07067871
300465,1077.1108,1077.6279,3.234375,-0.2890625,-4.5898438,0.81726074,-0.53570557,0.089782715,0.19250488,250775.0,1085.7314,1076.2524,-2.5859375,1.2890625,-5.1015625,-0.9384155,0.29559326,0.1638794,0.07147217
300485,1077.5576,1077.6462,2.7773438,0.0546875,-4.7460938,0.8164673,-0.5376587,0.089416504,0.19073486,250790.0,1085.9856,1076.1248,-3.0078125,1.328125,-5.7929688,-0.9384155,0.29699707,0.16082764,0.072509766
300505,1077.9146,1078.042,3.9257812,-0.2109375,-6.0117188,0.81640625,-0.53900146,0.08673096,0.18823242,250810.0,1086.4382,1074.3279,-3.2734375,1.0976562,-6.2929688,-0.9388428,0.29760742,0.15655518,0.07434082
300525,1078.2861,1077.7776,4.7695312,0.2109375,-6.2734375,0.8166504,-0.5397339,0.08337402,0.18658447,250830.0,1087.5054,1072.8054,-4.234375,0.6015625,-6.4453125,-0.93951416,0.29718018,0.15167236,0.07775879
300545,1078.7959,1077.6226,5.1523438,0.8203125,-6.1992188,0.8163452,-0.5407715,0.07897949,0.18670654,250850.0,1088.1458,1073.3018,-4.6523438,-0.546875,-6.40625,-0.9401245,0.29577637,0.14685059,0.08441162
300565,1079.3677,1077.8315,4.421875,1.5507812,-6.578125,0.81585693,-0.54138184,0.072509766,0.18981934,250870.0,1088.6255,1074.635,-4.4609375,-0.546875,-7.3203125,-0.94091797,0.2930298,0.14141846,0.093811035
300585,1080.3984,1078.1995,4.1171875,2.7773438,-7.2382812,0.81622314,-0.54003906,0.06463623,0.19470215,250890.0,1088.1262,1079.2358,-4.3867188,-0.9296875,-8.046875,-0.94195557,0.28985596,0.13537598,0.10180664
300605,1081.3242,1078.5491,3.6171875,3.8867188,-8.0703125,0.8173828,-0.538147,0.05670166,0.19769287,250910.0,1088.4104,1078.5708,-4.3867188,-2.1171875,-8.746094,-0.942688,0.2880249,0.12976074,0.10748291
300625,1082.125,1079.7639,3.0429688,4.2304688,-8.9140625,0.8184204,-0.5366821,0.050231934,0.19897461,250930.0,1088.4961,1079.3716,-1.7421875,-3.1132812,-10.734375,-0.94281006,0.28674316,0.12677002,0.11315918
300645,1081.6602,1080.2285,0.8984375,4.1171875,-11.140625,0.8189087,-0.5359497,0.04663086,0.19989014,250950.0,1087.8711,1078.3606,-0.9765625,-3.0390625,-11.8046875,-0.942688,0.28588867,0.12536621,0.11810303
300665,1081.8086,1081.0447,0.62890625,4.421875,-12.058594,0.81951904,-0.5363159,0.04473877,0.19689941,250970.0,1087.5586,1082.5386,-1.5117188,-2.8085938,-12.8046875,-0.942749,0.28601074,0.122558594,0.12017822
300685,1082.481,1082.4231,0.859375,4.6132812,-13.058594,0.821167,-0.5366211,0.042419434,0.18939209,250990.0,1087.1426,1081.5791,-2.3164062,-2.234375,-13.800781,-0.94317627,0.28710938,0.11920166,0.11767578
300705,1084.3276,1083.5942,1.5117188,4.3476562,-13.59375,0.8230591,-0.53692627,0.040649414,0.18078613,251010.0,1087.7659,1084.9304,-2.625,-2.15625,-12.839844,-0.9435425,0.28863525,0.11804199,0.11187744
300725,1083.7905,1083.2312,2.0859375,3.2734375,-12.519531,0.82354736,-0.5380249,0.041381836,0.17486572,251030.0,1089.1245,1086.374,-2.7382812,-1.8125,-11.691406,-0.94348145,0.29022217,0.12005615,0.105773926
300745,1082.7769,1082.7314,2.0078125,2.46875,-11.6015625,0.8223877,-0.54022217,0.044311523,0.17279053,251050.0,1087.5652,1086.2065,-2.5859375,-1.9257812,-10.355469,-0.9428711,0.29125977,0.12420654,0.10345459
300765,1082.8989,1083.1685,1.703125,1.8945312,-10.71875,0.821228,-0.5414429,0.04711914,0.17388916,251070.0,1088.2161,1086.239,-2.3945312,-1.6953125,-9.738281,-0.94177246,0.29223633,0.12817383,0.10614014
300785,1083.4397,1083.5715,1.7421875,1.5117188,-10.105469,0.8209839,-0.54089355,0.047180176,0.17669678,251090.0,1088.1902,1085.3132,-2.3554688,-0.47265625,-10.1953125,-0.9406128,0.29315186,0.13110352,0.10992432
300805,1083.1682,1083.4155,2.3164062,1.5117188,-10.300781,0.8213501,-0.539917,0.045776367,0.17834473,251110.0,1087.7744,1084.3213,-2.203125,-0.96875,-10.433594,-0.93951416,0.29400635,0.13360596,0.11395264
300825,1082.1328,1083.333,2.3164062,1.5117188,-10.683594,0.8216553,-0.5393677,0.044311523,0.17889404,251130.0,1086.562,1085.4365,-1.9726562,-1.5429688,-11.0,-0.9382324,0.29467773,0.13580322,0.11999512
300845,1081.7908,1082.2317,2.0859375,1.5507812,-11.332031,0.8216553,-0.5397949,0.042114258,0.17822266,251150.0,1086.0979,1084.8486,-2.3554688,-1.6601562,-11.4609375,-0.93707275,0.29412842,0.13800049,0.12768555
300865,1081.4968,1082.5076,2.5859375,2.5078125,-11.636719,0.8213501,-0.5404053,0.039489746,0.17816162,251170.0,1085.635,1083.675,-3.5039062,-0.6640625,-11.621094,-0.93652344,0.2929077,0.13970947,0.13269043
300880,1080.9387,1081.2205,3.0429688,2.890625,-11.5234375,0.82110596,-0.5409546,0.038757324,0.17791748,251190.0,1085.1814,1083.5435,-3.3125,-0.6640625,-11.6484375,-0.9367676,0.29180908,0.14086914,0.13201904
300900,1080.635,1080.1467,2.9296875,2.96875,-11.449219,0.82092285,-0.5414429,0.040039062,0.17694092,251210.0,1084.1267,1082.6077,-3.0820312,-1.4296875,-11.5,-0.93792725,0.2901001,0.14147949,0.12701416
300925,1079.4712,1078.7727,2.2382812,3.1601562,-11.410156,0.82110596,-0.54119873,0.042541504,0.17614746,251230.0,1083.5696,1083.0447,-2.8554688,-2.6171875,-11.230469,-0.93933105,0.28771973,0.14160156,0.1217041
300940,1079.1553,1078.9084,1.6640625,3.4648438,-11.027344,0.8213501,-0.54016113,0.045410156,0.17749023,251250.0,1083.1401,1082.3899,-3.1210938,-3.5351562,-10.355469,-0.9403076,0.28588867,0.14123535,0.11907959
300960,1078.2734,1076.9573,1.5898438,3.6171875,-10.683594,0.82141113,-0.53881836,0.046569824,0.18121338,251270.0,1082.4719,1081.929,-3.2734375,-2.921875,-9.972656,-0.94055176,0.28527832,0.14086914,0.11859131
300980,1077.6536,1076.7583,1.9726562,3.6953125,-10.261719,0.8210449,-0.5374756,0.04663086,0.18664551,251290.0,1082.2612,1080.5957,-2.6992188,-2.2734375,-9.550781,-0.9402466,0.28564453,0.14221191,0.118774414
301005,1076.4985,1074.8464,1.703125,2.8125,-9.300781,0.81970215,-0.53741455,0.048034668,0.19238281,251310.0,1081.7917,1080.1897,-1.9726562,-1.8125,-8.855469,-0.93981934,0.2855835,0.14483643,0.119262695
301020,1075.7258,1074.4163,1.1679688,2.6601562,-8.652344,0.8187256,-0.53778076,0.050598145,0.19482422,251330.0,1081.3159,1079.2178,-1.4765625,-1.890625,-7.6328125,-0.93951416,0.28460693,0.14794922,0.12030029
301040,1075.3403,1074.8425,0.70703125,2.5859375,-8.113281,0.81829834,-0.5377197,0.053527832,0.19598389,251350.0,1080.5981,1077.949,-1.5507812,-1.8515625,-7.6679688,-0.939209,0.28393555,0.15063477,0.120788574
301065,1075.4905,1074.7893,1.1289062,2.8515625,-7.4648438,0.81848145,-0.53704834,0.055541992,0.19647217,251370.0,1079.511,1077.4207,-1.8203125,-1.5820312,-7.7421875,-0.93914795,0.28442383,0.1519165,0.11834717
301080,1075.2639,1075.0159,1.7421875,2.8515625,-7.34375,0.81817627,-0.5366821,0.057739258,0.19799805,251390.0,1079.3064,1077.4285,-2.0859375,-1.390625,-7.703125,-0.93927,0.2861328,0.15228271,0.11260986
301100,1074.5859,1074.5552,2.2382812,2.5859375,-7.234375,0.8166504,-0.5377197,0.06060791,0.20062256,251410.0,1078.9363,1075.4219,-3.0820312,-1.0859375,-6.40625,-0.93896484,0.28900146,0.152771,0.107055664
301120,1072.6641,1073.8933,2.8125,1.5898438,-6.921875,0.81427,-0.5404053,0.06304932,0.20227051,251430.0,1078.5598,1075.2336,-3.1601562,-0.31640625,-5.8710938,-0.9383545,0.29144287,0.15319824,0.10534668
301145,1072.2283,1073.2576,3.3125,0.78515625,-5.96875,0.8123779,-0.5432739,0.06390381,0.20184326,251450.0,1078.6406,1074.7383,-3.1210938,0.140625,-5.6015625,-0.9378052,0.29229736,0.1541748,0.1060791
301160,1072.3008,1072.9094,3.234375,0.859375,-5.6640625,0.8112793,-0.54559326,0.064697266,0.20007324,251470.0,1078.9414,1073.749,-3.1601562,-0.1640625,-5.3671875,-0.93756104,0.29229736,0.1550293,0.10723877
301180,1072.1816,1072.3408,3.0820312,1.1289062,-5.3515625,0.8105469,-0.5470581,0.06573486,0.1986084,251490.0,1079.4602,1072.2771,-2.6992188,-0.08984375,-5.40625,-0.9371948,0.29260254,0.15588379,0.10827637
301200,1072.1191,1071.9814,2.7382812,1.2421875,-5.2460938,0.80981445,-0.5484009,0.066467285,0.19750977,251510.0,1079.529,1071.3635,-3.2734375,0.02734375,-5.3710938,-0.9367676,0.2937622,0.15667725,0.107910156
301220,1072.3823,1071.8962,3.1210938,1.28125,-5.3164062,0.80895996,-0.55010986,0.06695557,0.19604492,251530.0,1080.0393,1070.0886,-3.8867188,0.5234375,-5.3320312,-0.9359741,0.2962036,0.15771484,0.10626221
301240,1072.7566,1072.2402,3.6953125,0.74609375,-5.3945312,0.80804443,-0.55181885,0.06768799,0.19476318,251550.0,1080.6865,1065.4402,-4.0039062,1.0625,-5.640625,-0.9352417,0.29852295,0.15917969,0.10394287
301260,1072.6892,1072.7253,4.2695312,0.28515625,-5.6679688,0.80718994,-0.5531006,0.06866455,0.19439697,251570.0,1081.7466,1065.2102,-4.578125,0.640625,-5.75,-0.9351196,0.2989502,0.15960693,0.103393555
301285,1071.9692,1072.5947,5.4179688,-0.01953125,-5.9726562,0.80670166,-0.5531616,0.06774902,0.19671631,251590.0,1081.8398,1067.6863,-4.5,0.1015625,-6.1367188,-0.9355469,0.29736328,0.15716553,0.10760498
301300,1071.7207,1072.6279,5.1875,0.171875,-6.5039062,0.8070679,-0.5518799,0.0637207,0.2000122,251610.0,1082.1362,1069.1772,-4.3476562,-0.28125,-6.9765625,-0.93634033,0.2946167,0.15179443,0.11578369
301320,1072.667,1072.969,4.7304688,0.8984375,-7.1992188,0.8082886,-0.5492554,0.05529785,0.20477295,251630.0,1082.655,1069.773,-4.2695312,-0.203125,-7.6367188,-0.93725586,0.2915039,0.14624023,0.12335205
301340,1073.3252,1072.8723,4.15625,1.9335938,-7.4648438,0.8093872,-0.5465698,0.048461914,0.20928955,251650.0,1083.1016,1068.248,-4.3476562,-1.9648438,-8.015625,-0.93774414,0.28900146,0.14422607,0.12799072
301360,1073.6411,1073.0713,2.5078125,4.078125,-8.2265625,0.8097534,-0.5449829,0.045532227,0.21276855,251670.0,1083.4617,1071.585,-3.1601562,-2.921875,-8.6640625,-0.93707275,0.28723145,0.14727783,0.13305664
301380,1074.5564,1073.4983,1.5507812,3.8085938,-8.996094,0.80963135,-0.5444946,0.04510498,0.21453857,251690.0,1083.7053,1072.2126,-1.6679688,-2.8085938,-9.277344,-0.93603516,0.28533936,0.15130615,0.1395874
301400,1075.1882,1074.6619,1.3984375,3.6171875,-9.5703125,0.8101196,-0.5444336,0.04498291,0.21289062,251710.0,1082.9282,1074.7312,-1.2460938,-2.4648438,-10.316406,-0.9362793,0.2833252,0.14984131,0.1437378
301425,1076.844,1076.4082,1.2421875,4.0,-11.7109375,0.81311035,-0.5429077,0.041870117,0.20574951,251730.0,1082.3577,1079.1108,-1.78125,-3.4609375,-12.769531,-0.9382324,0.28112793,0.14202881,0.14312744
301440,1076.9473,1076.6284,1.8554688,4.6523438,-12.597656,0.81817627,-0.5396118,0.03552246,0.19537354,251750.0,1081.7161,1079.9973,-2.6992188,-4.4921875,-13.378906,-0.9412842,0.27905273,0.12976074,0.13879395
301460,1078.1418,1077.373,1.8554688,5.4960938,-13.097656,0.82281494,-0.5362549,0.02709961,0.1862793,251770.0,1082.0564,1079.3379,-3.8515625,-4.875,-13.2578125,-0.94366455,0.2788086,0.118896484,0.13275146
301480,1077.8157,1078.1042,1.78125,5.9921875,-12.980469,0.8245239,-0.5359497,0.0211792,0.18029785,251790.0,1082.6841,1080.6155,-4.5,-4.4570312,-12.730469,-0.94421387,0.28076172,0.11553955,0.1274414
301500,1076.9011,1078.5432,1.9726562,5.0742188,-12.59375,0.82354736,-0.5386963,0.020324707,0.17669678,251810.0,1083.0117,1082.1599,-4.6523438,-3.5351562,-11.421875,-0.9435425,0.28271484,0.11773682,0.12646484
301520,1076.3386,1077.8564,2.1992188,4.2304688,-11.8671875,0.8218384,-0.5413208,0.021850586,0.1763916,251830.0,1082.9746,1081.237,-4.15625,-2.4257812,-11.347656,-0.94226074,0.2841797,0.122680664,0.12774658
301540,1076.0269,1077.7561,2.5078125,3.7734375,-11.566406,0.82037354,-0.5427246,0.024230957,0.17828369,251850.0,1082.585,1081.6448,-3.5039062,-2.0820312,-11.042969,-0.940979,0.28570557,0.12774658,0.12872314
301565,1075.5818,1077.3657,1.703125,2.7773438,-11.144531,0.8192749,-0.5432739,0.026184082,0.18151855,251870.0,1081.3618,1080.5488,-2.890625,-2.1953125,-10.8828125,-0.9397583,0.28741455,0.13140869,0.13031006
301580,1075.0925,1076.7292,2.0078125,2.203125,-11.0625,0.8187866,-0.54296875,0.0256958,0.18450928,251890.0,1080.594,1079.7158,-2.5859375,-1.390625,-11.15625,-0.93865967,0.2888794,0.13330078,0.1329956
301600,1074.8855,1076.3438,2.3945312,2.203125,-11.253906,0.8185425,-0.5427246,0.023132324,0.18695068,251910.0,1079.9329,1079.7756,-2.6992188,-0.81640625,-11.1953125,-0.9380493,0.2892456,0.13470459,0.13500977
301620,1074.7361,1074.9026,2.8515625,2.7382812,-11.371094,0.8178711,-0.5430298,0.022094727,0.18884277,251930.0,1079.4065,1079.3472,-3.0078125,-1.0078125,-11.265625,-0.9380493,0.28900146,0.1361084,0.13433838
301640,1074.6218,1074.5908,2.2773438,3.1953125,-11.253906,0.81726074,-0.54345703,0.023742676,0.19000244,251950.0,1078.4714,1078.5415,-2.96875,-1.1992188,-11.15625,-0.93847656,0.28857422,0.13757324,0.13067627
301660,1073.2896,1072.6411,1.8554688,3.5429688,-11.140625,0.8173218,-0.5432739,0.026855469,0.19006348,251970.0,1078.1072,1077.8325,-2.3164062,-2.4257812,-10.660156,-0.93914795,0.28845215,0.13879395,0.124694824
301680,1072.4851,1071.8372,1.703125,3.6171875,-10.8671875,0.8175049,-0.5430908,0.030944824,0.18902588,251990.0,1076.8354,1076.5593,-2.7382812,-2.7695312,-10.390625,-0.93963623,0.2890625,0.13977051,0.11828613
301700,1071.3562,1070.9741,1.4726562,3.6953125,-10.640625,0.8175049,-0.54345703,0.034973145,0.18737793,252010.0,1076.2847,1075.1113,-2.9296875,-2.4257812,-10.121094,-0.9395752,0.29052734,0.14123535,0.11328125
301720,1071.0012,1070.1079,1.703125,3.0039062,-9.875,0.81726074,-0.54382324,0.038269043,0.18682861,252035.0,1075.5305,1074.7224,-2.1640625,-1.5429688,-9.125,-0.93914795,0.29187012,0.14404297,0.109558105
301740,1070.0391,1068.6812,1.6640625,2.546875,-9.378906,0.8164673,-0.54437256,0.041870117,0.18786621,252050.0,1074.9722,1073.656,-1.9726562,-1.390625,-8.5859375,-0.9388428,0.29229736,0.14733887,0.10681152
301760,1069.5652,1067.5979,1.5507812,2.3945312,-8.875,0.8154907,-0.5447998,0.045837402,0.18988037,252070.0,1074.1194,1072.9958,-1.9335938,-1.2773438,-8.203125,-0.9387207,0.29211426,0.15014648,0.10461426
301785,1068.575,1067.7529,1.5117188,2.046875,-8.3046875,0.8148804,-0.54486084,0.048950195,0.19165039,252090.0,1073.5813,1072.5898,-1.8203125,-0.85546875,-8.050781,-0.93878174,0.29162598,0.15197754,0.10253906
301800,1068.0762,1067.4612,1.5507812,2.0078125,-8.265625,0.8149414,-0.54455566,0.051208496,0.19171143,252115.0,1072.886,1072.3691,-2.625,-1.1601562,-7.9023438,-0.939209,0.29101562,0.15246582,0.09991455
301820,1067.3936,1067.5266,1.8554688,1.9726562,-8.074219,0.81573486,-0.54382324,0.05230713,0.19012451,252130.0,1072.3008,1070.8503,-2.6992188,-1.3125,-7.6640625,-0.93927,0.2909546,0.15344238,0.098083496
301840,1066.8418,1067.2654,2.2773438,1.8554688,-7.8476562,0.8161011,-0.54351807,0.053344727,0.18902588,252150.0,1071.8032,1070.1592,-2.7382812,-1.1210938,-7.6328125,-0.9389038,0.2913208,0.15496826,0.097717285
301860,1066.074,1066.6743,2.5078125,2.046875,-7.6210938,0.8154297,-0.54455566,0.05444336,0.1887207,252170.0,1071.4321,1070.0154,-2.8164062,-1.0859375,-7.4414062,-0.9384155,0.29174805,0.15655518,0.09857178
301880,1065.6609,1066.6594,2.6210938,1.5898438,-7.265625,0.8140259,-0.5463867,0.055358887,0.18914795,252195.0,1070.9985,1068.9934,-3.3125,-0.39453125,-6.4765625,-0.93792725,0.2919922,0.15789795,0.10070801
301900,1065.0659,1065.5186,2.7773438,1.359375,-6.9257812,0.8123779,-0.5484619,0.055786133,0.19006348,252210.0,1071.0266,1067.6877,-3.3125,0.1015625,-6.09375,-0.93743896,0.29193115,0.15930176,0.10321045
301925,1064.947,1064.9976,3.234375,1.28125,-6.0820312,0.8109131,-0.5501709,0.055725098,0.19146729,252230.0,1071.0061,1066.3848,-3.2382812,0.37109375,-5.7109375,-0.9373169,0.29119873,0.16027832,0.10491943
