timestamp_1,fPressureFront_1,fPressureSide_1,acceleration.x_1,acceleration.y_1,acceleration.z_1,quaternion.i_1,quaternion.j_1,quaternion.k_1,quaternion.real_1,timestamp_2,fPressureFront_2,fPressureSide_2,acceleration.x_2,acceleration.y_2,acceleration.z_2,quaternion.i_2,quaternion.j_2,quaternion.k_2,quaternion.real_2
2368910.0,1010.3069,1008.99243,6.4375,7.6484375,2.7421875,0.29101562,-0.5043335,-0.28918457,0.75982666,2368945,1009.1516,1010.7742,-9.050781,4.953125,-0.38671875,0.5309448,0.47705078,-0.19226074,0.67352295
2368920.0,1010.3406,1009.00024,2.2617188,8.800781,4.65625,0.505188,-0.02142334,0.19952393,0.83935547,2368950,1009.1526,1010.7742,-8.167969,3.8007812,-0.2734375,0.52020264,0.49279785,-0.1906128,0.6709595
2368945.0,1010.3242,1009.01636,2.1835938,8.496094,5.078125,0.50720215,-0.0211792,0.20129395,0.83776855,2368970,1009.1411,1010.7446,-3.953125,8.746094,1.1054688,0.2199707,0.6382446,0.5338745,0.5091553
2368960.0,1010.3203,1008.9802,2.453125,8.308594,4.9609375,0.50805664,-0.021362305,0.20178223,0.83709717,2368985,1009.1575,1010.801,-3.7617188,8.703125,1.296875,0.21911621,0.63671875,0.5363159,0.5088501
2368980.0,1010.31665,1008.97876,2.4921875,8.378906,4.7695312,0.5076294,-0.022277832,0.2010498,0.8375244,2369005,1009.1406,1010.7827,-3.953125,8.3984375,1.375,0.2189331,0.6368408,0.53619385,0.50897217
2369005.0,1010.31006,1008.99,2.6445312,8.339844,4.2734375,0.5060425,-0.023376465,0.19903564,0.8389282,2369025,1009.1394,1010.7793,-3.8398438,9.050781,1.296875,0.21966553,0.63879395,0.5341797,0.50823975
2369020.0,1010.31836,1008.95435,2.4140625,8.4140625,4.5429688,0.5046997,-0.024047852,0.19702148,0.8401489,2369045,1009.10693,1010.7754,-3.8007812,9.46875,0.953125,0.21984863,0.64056396,0.53302,0.50720215
2369040.0,1010.3469,1008.9856,2.2617188,8.6484375,4.7695312,0.50427246,-0.024047852,0.19604492,0.84069824,2369065,1009.1736,1010.7854,-3.9921875,9.355469,0.87890625,0.21899414,0.6407471,0.5338135,0.5064697
2369065.0,1010.3174,1009.0039,2.1835938,8.761719,4.9609375,0.5046997,-0.023620605,0.1963501,0.84033203,2369085,1009.146,1010.80225,-4.2617188,8.402344,1.03125,0.21850586,0.64019775,0.53466797,0.5064697
2369085.0,1010.324,1008.9961,2.375,8.308594,5.078125,0.50671387,-0.02319336,0.19805908,0.8386841,2369105,1009.17236,1010.80566,-4.296875,8.78125,0.76171875,0.21826172,0.6397705,0.5350952,0.50671387
2369100.0,1010.3064,1008.97046,2.5664062,8.339844,4.5429688,0.50842285,-0.022827148,0.19921875,0.83740234,2369125,1009.11914,1010.79297,-4.375,9.0078125,0.9140625,0.21807861,0.63916016,0.53533936,0.5073242
2369120.0,1010.3413,1008.9629,2.6445312,8.652344,4.4257812,0.5090332,-0.022277832,0.19989014,0.83691406,2369145,1009.15405,1010.76294,-4.0703125,8.8203125,0.9140625,0.21832275,0.6390381,0.53448486,0.50823975
2369145.0,1010.2771,1008.9663,3.0273438,8.3359375,4.3125,0.50860596,-0.022094727,0.19958496,0.8372803,2369165,1009.1643,1010.80347,-3.9140625,8.8203125,0.5703125,0.21862793,0.6401367,0.5327759,0.5085449
2369160.0,1010.30664,1008.9966,2.9140625,8.230469,4.3125,0.50805664,-0.021911621,0.19830322,0.8378906,2369185,1009.15137,1010.8186,-3.7617188,9.128906,0.609375,0.21820068,0.6404419,0.5325928,0.5085449
2369180.0,1010.3152,1008.99365,2.796875,8.152344,4.5429688,0.5084839,-0.021362305,0.19714355,0.83795166,2369205,1009.12915,1010.82056,-3.6875,8.902344,0.9140625,0.21728516,0.6397095,0.5340576,0.5083008
2369200.0,1010.3491,1008.96436,2.53125,8.378906,4.9257812,0.51000977,-0.020446777,0.19702148,0.83703613,2369225,1009.1638,1010.8142,-3.8007812,8.203125,0.9140625,0.2163086,0.6394043,0.53552246,0.50756836
2369225.0,1010.3054,1008.9409,2.453125,8.230469,4.6953125,0.5115967,-0.01928711,0.19769287,0.8359375,2369245,1009.1267,1010.77954,-4.1054688,7.8984375,0.953125,0.21624756,0.6404419,0.5343628,0.5074463
2369240.0,1010.30054,1008.978,2.4140625,8.375,4.3125,0.5114746,-0.018493652,0.19726562,0.8361206,2369265,1009.178,1010.7793,-4.1835938,8.3203125,1.2226562,0.21759033,0.64172363,0.5317383,0.5079956
2369260.0,1010.29956,1008.9641,2.453125,8.417969,4.4257812,0.510376,-0.017944336,0.19543457,0.83721924,2369285,1009.1421,1010.78296,-3.9921875,9.207031,1.2617188,0.21868896,0.6418457,0.5308838,0.5083008
2369285.0,1010.3279,1008.95776,2.1835938,8.957031,4.578125,0.50946045,-0.017822266,0.1930542,0.8383789,2369305,1009.1406,1010.79736,-4.296875,9.511719,1.03125,0.21905518,0.64105225,0.53149414,0.5085449
2369300.0,1010.29346,1008.9783,2.0703125,9.183594,4.65625,0.5093994,-0.0178833,0.19146729,0.8387451,2369325,1009.1658,1010.8025,-4.296875,8.972656,0.9140625,0.21966553,0.64086914,0.5310669,0.50891113
2369320.0,1010.33105,1008.96313,2.03125,9.296875,4.734375,0.51031494,-0.018066406,0.1920166,0.83807373,2369345,1009.16113,1010.7986,-4.2226562,8.5859375,0.87890625,0.22052002,0.6415405,0.52941895,0.5093994
2369340.0,1010.343,1008.9873,2.03125,8.761719,4.734375,0.51171875,-0.019104004,0.19348145,0.836853,2369365,1009.1919,1010.78687,-4.1445312,8.3203125,0.76171875,0.22131348,0.6428833,0.52716064,0.5097656
2369365.0,1010.31323,1008.99927,2.453125,7.8476562,4.2734375,0.5130615,-0.021484375,0.19360352,0.8359375,2369385,1009.13354,1010.7805,-3.8789062,9.3203125,0.953125,0.2208252,0.64312744,0.52697754,0.50982666
2369380.0,1010.3213,1009.0049,2.453125,8.113281,4.4257812,0.51330566,-0.0234375,0.19207764,0.8361206,2369405,1009.13135,1010.7803,-3.8007812,9.28125,1.375,0.2197876,0.64172363,0.5282593,0.51068115
2369400.0,1010.3186,1008.9861,2.3007812,8.457031,4.4257812,0.5117798,-0.026123047,0.18908691,0.8376465,2369425,1009.1577,1010.78345,-3.8398438,8.667969,1.4140625,0.21972656,0.6412964,0.52838135,0.5111084
2369425.0,1010.33057,1008.97656,2.2226562,8.453125,4.734375,0.510376,-0.028686523,0.18621826,0.8390503,2369445,1009.1531,1010.7798,-3.8398438,8.5859375,1.0703125,0.22039795,0.6425171,0.5272827,0.51049805
2369445.0,1010.3003,1008.97,2.3007812,8.265625,4.4648438,0.51086426,-0.030334473,0.18487549,0.83898926,2369465,1009.1179,1010.782,-3.9140625,8.589844,0.6875,0.22033691,0.64416504,0.5258789,0.5098877
2369460.0,1010.323,1009.0088,2.6054688,8.308594,4.1953125,0.51257324,-0.030578613,0.18499756,0.83795166,2369485,1009.1609,1010.76855,-4.4140625,8.480469,0.80078125,0.21966553,0.64404297,0.5258789,0.51031494
2369480.0,1010.3357,1008.989,2.7226562,8.230469,4.4257812,0.51379395,-0.02960205,0.18603516,0.8369751,2369505,1009.11865,1010.79126,-4.4882812,8.285156,0.83984375,0.21905518,0.6425781,0.52667236,0.5115967
2369505.0,1010.34375,1008.97925,2.5664062,8.535156,4.4648438,0.51379395,-0.027893066,0.1873169,0.83673096,2369525,1009.1345,1010.77734,-4.6054688,8.246094,0.80078125,0.21929932,0.64227295,0.5262451,0.5123291
2369520.0,1010.3374,1008.94214,2.375,8.6484375,4.5039062,0.5128784,-0.027038574,0.1875,0.8372803,2369545,1009.1455,1010.74097,-4.4140625,9.550781,0.609375,0.22052002,0.64282227,0.5251465,0.51220703
2369540.0,1010.3303,1008.96826,2.2226562,8.796875,4.5429688,0.5117798,-0.026855469,0.18762207,0.83795166,2369565,1009.1521,1010.7654,-4.375,9.707031,0.6875,0.2210083,0.64227295,0.52563477,0.51220703
2369560.0,1010.3098,1008.96606,2.2226562,9.035156,4.3515625,0.51208496,-0.027954102,0.18896484,0.83740234,2369585,1009.17163,1010.77856,-4.2226562,9.433594,0.83984375,0.22064209,0.6409912,0.5263672,0.5132446
2369580.0,1010.30835,1008.9697,2.4921875,9.03125,4.3515625,0.5147705,-0.030395508,0.1920166,0.835022,2369605,1009.1521,1010.78174,-4.1835938,9.128906,0.87890625,0.21960449,0.64038086,0.52685547,0.513916
2369600.0,1010.3047,1008.97754,2.375,8.4140625,4.0820312,0.5187378,-0.032836914,0.19439697,0.8319092,2369625,1009.1575,1010.8042,-4.1054688,8.441406,0.6875,0.2185669,0.64172363,0.5266113,0.51293945
2369620.0,1010.2883,1009.0083,2.2226562,8.53125,3.390625,0.5220947,-0.033691406,0.19317627,0.8300171,2369645,1009.1311,1010.8054,-3.53125,8.902344,0.72265625,0.21783447,0.6428833,0.52667236,0.51171875
2369645.0,1010.30884,1008.9866,2.0703125,9.0703125,3.8515625,0.5249634,-0.033081055,0.18847656,0.8293457,2369665,1009.14624,1010.8091,-3.0351562,9.550781,0.6875,0.21502686,0.64208984,0.52978516,0.51068115
2369660.0,1010.3196,1008.9917,2.1835938,9.417969,3.9296875,0.52789307,-0.032409668,0.1854248,0.82818604,2369685,1009.1599,1010.81226,-3.3789062,9.128906,0.6484375,0.21130371,0.6404419,0.5338745,0.5100708
2369680.0,1010.30054,1008.9812,2.1445312,8.917969,3.890625,0.53338623,-0.032287598,0.18273926,0.82525635,2369705,1009.1697,1010.83716,-4.453125,7.5195312,1.4140625,0.20703125,0.6394043,0.5374756,0.50927734
2369700.0,1010.323,1009.01074,2.2617188,8.5703125,4.1210938,0.5397339,-0.033081055,0.17932129,0.8218994,2369725,1009.157,1010.81055,-5.2929688,7.7109375,1.8359375,0.20404053,0.6381836,0.54089355,0.50842285
2369720.0,1010.29517,1008.9868,2.1835938,8.53125,3.8515625,0.54541016,-0.03479004,0.17327881,0.81933594,2369745,1009.18115,1010.80786,-5.2929688,8.0546875,1.9101562,0.20288086,0.63671875,0.54400635,0.50738525
2369740.0,1010.2908,1008.98975,1.8789062,9.3359375,3.1992188,0.5488281,-0.037902832,0.16607666,0.8183594,2369765,1009.18335,1010.81665,-4.796875,8.941406,1.9492188,0.203125,0.6343994,0.54626465,0.5078125
2369760.0,1010.33887,1009.00366,1.8007812,9.3359375,3.0859375,0.54992676,-0.042663574,0.16021729,0.8186035,2369785,1009.1841,1010.78516,-3.6484375,9.167969,1.9492188,0.203125,0.63061523,0.5494385,0.50909424
2369785.0,1010.32007,1009.01416,2.109375,8.6875,3.4296875,0.55181885,-0.049621582,0.1552124,0.8179321,2369805,1009.2031,1010.7671,-2.9570312,8.667969,1.9101562,0.20153809,0.62908936,0.5527954,0.5079956
2369800.0,1010.27515,1009.0134,2.109375,8.457031,3.3554688,0.55474854,-0.054992676,0.15228271,0.8161011,2369825,1009.1853,1010.81055,-2.6523438,8.441406,1.796875,0.19934082,0.6314697,0.5543823,0.5041504
2369820.0,1010.2959,1009.0249,2.2226562,8.152344,2.96875,0.5593872,-0.06201172,0.14752197,0.8133545,2369845,1009.18506,1010.83325,-2.5351562,8.519531,1.1445312,0.19732666,0.6374512,0.5533447,0.49847412
2369840.0,1010.2947,1009.0215,2.2617188,8.378906,2.3945312,0.560791,-0.070007324,0.13946533,0.81311035,2369865,1009.10986,1010.80493,-1.3476562,8.515625,-0.73046875,0.1951294,0.6447754,0.5510864,0.49243164
2369860.0,1010.2285,1009.0503,2.9140625,7.84375,1.5546875,0.56066895,-0.07904053,0.12908936,0.8140869,2369885,1009.14233,1010.8054,-1.9609375,8.941406,-0.5,0.19445801,0.6482544,0.5505371,0.4887085
2369880.0,1010.2649,1009.0222,2.6835938,8.496094,0.6328125,0.5604248,-0.08380127,0.12261963,0.81481934,2369905,1009.1709,1010.81714,-2.9570312,8.902344,0.07421875,0.1963501,0.64801025,0.552063,0.48657227
2369900.0,1010.24316,1008.9873,2.0703125,9.8359375,0.6328125,0.5586548,-0.08453369,0.12261963,0.81591797,2369925,1009.1765,1010.7976,-4.1445312,8.902344,0.49609375,0.20251465,0.6447754,0.5531616,0.48706055
2369925.0,1010.30835,1009.0254,0.84375,8.917969,2.5859375,0.55462646,-0.08502197,0.12750244,0.8178711,2369945,1009.1926,1010.7986,-5.5625,8.96875,0.109375,0.21154785,0.6411133,0.5513916,0.4901123
2369940.0,1010.2529,1008.9529,1.3789062,9.644531,3.1992188,0.5529175,-0.08673096,0.13128662,0.8182373,2369965,1009.2124,1010.7793,-5.7148438,8.28125,1.1835938,0.21881104,0.63861084,0.54815674,0.4937744
2369960.0,1010.25146,1008.97095,0.8828125,10.792969,1.9375,0.5442505,-0.09210205,0.13061523,0.82354736,2369985,1009.2117,1010.8242,-5.5625,9.089844,0.76171875,0.22509766,0.635376,0.54467773,0.49890137
2369980.0,1010.3401,1008.94385,1.34375,9.6796875,2.96875,0.5283203,-0.10064697,0.123291016,0.8340454,2370005,1009.2207,1010.78394,-5.2578125,9.703125,0.953125,0.22680664,0.6309204,0.5458374,0.5025635
2370000.0,1010.3074,1008.9336,2.53125,8.71875,3.6210938,0.51330566,-0.10974121,0.11639404,0.84313965,2370025,1009.22876,1010.7881,-5.140625,9.167969,1.6445312,0.22888184,0.6268921,0.54693604,0.50549316
2370020.0,1010.35034,1009.1809,2.6445312,8.453125,3.1601562,0.5023804,-0.117248535,0.11529541,0.84887695,2370045,1009.2151,1010.80835,-4.5273438,9.3515625,2.21875,0.23040771,0.62353516,0.5474243,0.5083618
2370040.0,1010.3738,1009.24243,2.8359375,8.3046875,3.6601562,0.49401855,-0.123535156,0.11999512,0.8522339,2370065,1009.2095,1010.7612,-4.5664062,8.9375,2.3710938,0.23101807,0.61932373,0.548645,0.51190186
2370065.0,1010.39185,1009.3677,2.9882812,6.921875,5.2695312,0.4855957,-0.1307373,0.12921143,0.85461426,2370090,1009.27563,1010.79395,-4.6054688,8.703125,3.3671875,0.22955322,0.614563,0.55249023,0.51416016
2370080.0,1010.4009,1009.9734,2.796875,6.1992188,5.8828125,0.48291016,-0.13665771,0.13494873,0.8543701,2370105,1009.2417,1010.8352,-4.71875,8.4765625,3.9023438,0.22796631,0.61083984,0.55651855,0.5149536
2370100.0,1010.417,1010.13696,2.6835938,5.6210938,5.8828125,0.48443604,-0.14648438,0.14257812,0.85058594,2370125,1009.24194,1010.8157,-4.03125,8.402344,4.0195312,0.22705078,0.6107178,0.55810547,0.5137329
2370120.0,1010.43066,1010.26904,2.6445312,4.6640625,5.8828125,0.49658203,-0.15673828,0.15472412,0.8395996,2370145,1009.2168,1010.843,-3.7617188,7.7148438,3.2148438,0.22460938,0.6138916,0.5592041,0.5098877
2370140.0,1010.40894,1010.70166,3.4101562,2.671875,5.3085938,0.5256958,-0.16546631,0.17816162,0.81518555,2370170,1009.18555,1010.85205,-4.1054688,6.6367188,2.6015625,0.22296143,0.61901855,0.5593262,0.5042114
2370160.0,1010.3701,1012.0593,4.2929688,2.5195312,4.1210938,0.5671997,-0.17108154,0.21063232,0.7775879,2370185,1009.1902,1010.8425,-3.265625,6.9101562,2.484375,0.22570801,0.62316895,0.5584717,0.49884033
2370180.0,1010.55835,1013.0957,5.671875,3.5898438,3.7382812,0.6029053,-0.17156982,0.23828125,0.7418213,2370205,1009.18555,1010.8364,-2.6914062,7.1757812,2.1015625,0.23052979,0.6244507,0.5595703,0.4937744
2370205.0,1012.687,1015.0864,4.90625,4.1640625,2.9335938,0.6276245,-0.1708374,0.2518921,0.71655273,2370225,1009.15845,1010.8406,-2.5742188,7.2890625,1.7578125,0.23565674,0.6248779,0.56378174,0.4859619
2370220.0,1013.7505,1016.0681,5.015625,4.4335938,1.2460938,0.64849854,-0.16766357,0.25683594,0.6966553,2370250,1009.2053,1010.7234,-4.9882812,8.441406,1.9101562,0.2401123,0.62683105,0.56848145,0.47564697
2370240.0,1014.781,1017.68115,5.8242188,6.2382812,0.01953125,0.66986084,-0.16314697,0.26031494,0.67596436,2370265,1009.21875,1010.7478,-6.828125,9.167969,2.5625,0.24401855,0.63079834,0.5708618,0.46551514
2370260.0,1016.0215,1018.5532,7.2070312,6.65625,0.05859375,0.6898804,-0.15563965,0.26745605,0.65448,2370285,1009.1975,1010.75854,-5.7539062,10.050781,2.21875,0.24499512,0.633667,0.57354736,0.4576416
2370280.0,1016.9182,1020.5398,7.2421875,6.5390625,-0.171875,0.70532227,-0.14257812,0.27819824,0.63623047,2370305,1009.21533,1010.7854,-5.0664062,10.050781,1.5664062,0.24243164,0.6338501,0.57977295,0.4508667
2370300.0,1019.05566,1021.6875,6.3984375,6.234375,0.48046875,0.71850586,-0.12823486,0.29101562,0.6185913,2370325,1009.20166,1010.7988,-4.0703125,8.824219,1.2226562,0.237854,0.63464355,0.58587646,0.4442749
2370320.0,1020.4934,1023.68896,5.7851562,5.0078125,0.98046875,0.73101807,-0.11627197,0.30706787,0.59814453,2370345,1009.17725,1010.78076,-3.8398438,8.625,0.45703125,0.2300415,0.6392822,0.59069824,0.43530273
2370345.0,1023.0491,1025.7949,5.6328125,5.6953125,2.4335938,0.744812,-0.107055664,0.32177734,0.574646,2370365,1009.15283,1010.79785,-4.03125,8.6640625,0.30078125,0.22198486,0.6442261,0.5935669,0.42822266
2370360.0,1024.2112,1026.6912,5.6367188,4.703125,0.6328125,0.7601929,-0.09954834,0.33013916,0.55059814,2370385,1009.19165,1010.79834,-3.9921875,8.703125,0.53125,0.21392822,0.64764404,0.5968628,0.42260742
2370380.0,1025.2471,1027.4336,7.2070312,4.3203125,-1.1289062,0.77911377,-0.08905029,0.33258057,0.52386475,2370405,1009.1665,1010.7744,-4.1054688,9.96875,0.6875,0.20562744,0.6499634,0.60162354,0.41638184
2370400.0,1027.1411,1029.3564,6.9335938,5.6210938,-3.578125,0.79852295,-0.075805664,0.3314209,0.49676514,2370425,1009.1387,1010.7788,-4.1054688,9.933594,0.49609375,0.19665527,0.652771,0.6065674,0.40899658
2370420.0,1028.6145,1030.5801,6.4375,5.2773438,-6.453125,0.8153076,-0.059387207,0.32928467,0.4725952,2370445,1009.1272,1010.7622,-3.9140625,10.46875,0.30078125,0.18621826,0.65600586,0.61151123,0.40124512
2370440.0,1031.3777,1032.6729,5.7460938,5.0078125,-6.6835938,0.8314209,-0.038635254,0.32714844,0.44744873,2370465,1009.17163,1010.76904,-3.5703125,10.65625,0.07421875,0.1739502,0.6589966,0.616333,0.3944702
2370460.0,1032.6375,1033.9524,5.671875,6.1953125,-6.796875,0.8467407,-0.01586914,0.32354736,0.42199707,2370485,1009.1145,1010.77637,-2.6914062,10.0859375,-0.73046875,0.15979004,0.6622925,0.62005615,0.38897705
2370485.0,1035.3765,1036.3396,4.90625,5.46875,-6.2578125,0.8605957,0.0048217773,0.31445312,0.40057373,2370505,1009.1138,1010.79834,-2.6914062,10.128906,-0.578125,0.14672852,0.6642456,0.62298584,0.38616943
2370500.0,1036.5039,1037.3691,4.1757812,5.2773438,-6.875,0.8748779,0.025878906,0.30065918,0.37890625,2370525,1009.12427,1010.79663,-2.3828125,9.734375,-0.46484375,0.13275146,0.66400146,0.62713623,0.3848877
2370520.0,1038.5632,1038.8684,3.0664062,6.7695312,-7.7226562,0.8876343,0.044677734,0.28356934,0.3600464,2370545,1009.1682,1010.7739,-2.6523438,9.703125,0.03515625,0.119140625,0.6622925,0.6317749,0.38476562
2370540.0,1039.6475,1039.6702,2.0703125,7.8046875,-8.1328125,0.89678955,0.05859375,0.2664795,0.34832764,2370565,1009.1941,1010.8096,-2.34375,8.5859375,0.45703125,0.10437012,0.6594238,0.63793945,0.38378906
2370565.0,1041.5205,1041.6233,1.6484375,8.265625,-7.4101562,0.9014282,0.06628418,0.25128174,0.34631348,2370585,1009.1533,1010.83325,-2.421875,8.1328125,0.72265625,0.09063721,0.65618896,0.6452637,0.38061523
2370580.0,1042.4832,1042.9866,0.99609375,6.6171875,-7.4492188,0.90289307,0.07055664,0.2376709,0.3511963,2370605,1009.17163,1010.79395,-2.4609375,8.0546875,0.76171875,0.078308105,0.6530762,0.6516113,0.37786865
2370600.0,1044.5227,1046.8457,1.4179688,3.9726562,-8.214844,0.90441895,0.07574463,0.2267456,0.35339355,2370625,1009.1555,1010.83154,-2.6523438,8.2421875,0.6875,0.067993164,0.65008545,0.6555176,0.37817383
2370625.0,1046.2207,1051.2009,-1.2265625,0.94921875,-9.015625,0.9108887,0.08709717,0.2163086,0.34051514,2370645,1009.19214,1010.81836,-2.9960938,8.2421875,0.83984375,0.058898926,0.6470337,0.6590576,0.37878418
2370640.0,1048.7188,1053.2085,-1.875,3.7460938,-9.7109375,0.9191284,0.09967041,0.20196533,0.3232422,2370665,1009.1665,1010.81836,-3.2265625,7.6328125,0.76171875,0.052124023,0.6444092,0.6628418,0.3776245
2370660.0,1049.5911,1057.8762,-1.3789062,2.8632812,-8.753906,0.9205322,0.11077881,0.17938232,0.32891846,2370685,1009.16943,1010.8098,-3.609375,7.8984375,0.87890625,0.04650879,0.6411133,0.66778564,0.3753662
2370680.0,1051.1975,1061.741,-1.4921875,4.6640625,-8.792969,0.91174316,0.12573242,0.14385986,0.36364746,2370705,1009.1709,1010.8606,-4.1054688,7.3984375,1.1445312,0.043395996,0.6382446,0.6717529,0.37347412
2370700.0,1052.2744,1067.0796,-1.8359375,5.2382812,-9.859375,0.8986206,0.15075684,0.10662842,0.39801025,2370725,1009.16724,1010.876,-5.484375,6.0625,0.609375,0.046691895,0.6394043,0.66937256,0.37542725
2370720.0,1053.866,1068.2344,-5.015625,6.0039062,-11.3515625,0.89282227,0.17651367,0.07733154,0.4071045,2370745,1009.1743,1010.86816,-6.9414062,6.9453125,0.1875,0.06213379,0.64508057,0.65948486,0.38098145
2370740.0,1057.325,1069.8992,-4.9023438,9.875,-11.3515625,0.89276123,0.1963501,0.055419922,0.4017334,2370765,1009.15576,1010.8694,-5.8320312,7.515625,-0.6171875,0.08795166,0.649292,0.6497803,0.38531494
2370765.0,1061.363,1070.8369,-5.09375,10.5234375,-9.59375,0.8956909,0.21124268,0.033813477,0.38983154,2370785,1009.1846,1010.865,-5.21875,6.5976562,-1.2695312,0.12097168,0.65283203,0.6402588,0.3862915
2370780.0,1062.1477,1070.8745,-5.9765625,13.863281,-9.785156,0.89904785,0.22320557,0.012451172,0.37652588,2370805,1009.1763,1010.895,-3.265625,5.2578125,-1.2695312,0.16168213,0.6598511,0.6257324,0.38330078
2370800.0,1061.7366,1071.7583,-4.7109375,9.988281,-11.3125,0.90112305,0.23504639,-0.0006713867,0.3642578,2370825,1009.1919,1010.8938,-2.1523438,5.4882812,-0.921875,0.20489502,0.6729126,0.6054077,0.37249756
2370820.0,1063.4199,1072.1841,-5.2070312,9.683594,-12.886719,0.90478516,0.24859619,-0.0032958984,0.3458252,2370845,1009.14185,1016.9939,-0.3515625,5.9453125,-1.6523438,0.24951172,0.69085693,0.58044434,0.35150146
2370840.0,1064.426,1072.0024,-6.7421875,9.949219,-11.433594,0.91015625,0.26263428,0.005432129,0.32025146,2370865,1009.1123,1016.3667,1.484375,5.0234375,-2.8398438,0.28997803,0.71136475,0.552124,0.32409668
2370860.0,1065.6711,1071.0496,-5.1328125,11.175781,-8.90625,0.9124756,0.2822876,0.013244629,0.29577637,2370885,1009.1045,1017.08984,2.7890625,7.4414062,-3.6445312,0.32250977,0.7328491,0.52282715,0.2925415
2370880.0,1065.6758,1071.1719,-5.015625,11.792969,-9.59375,0.9098511,0.30932617,0.023376465,0.27563477,2370905,1009.16187,1018.4917,5.0859375,9.8515625,-3.9101562,0.33953857,0.74328613,0.5153198,0.25823975
2370900.0,1065.8169,1070.367,-6.2421875,10.714844,-10.246094,0.90338135,0.338562,0.032104492,0.2611084,2370925,1011.1748,1019.13184,2.6367188,10.394531,-2.6835938,0.3441162,0.741272,0.5299072,0.22650146
2370920.0,1066.9937,1069.5044,-6.359375,11.097656,-9.59375,0.8982544,0.36590576,0.038391113,0.24023438,2370945,1011.5742,1019.9109,5.203125,8.6640625,-4.3320312,0.3406372,0.7344971,0.55163574,0.20043945
2370940.0,1068.645,1067.6758,-5.3984375,10.1015625,-9.785156,0.8978882,0.3861084,0.04058838,0.2074585,2370965,1012.5134,1021.4512,4.8945312,7.09375,-2.9140625,0.33544922,0.7250366,0.57366943,0.18103027
2370960.0,1068.3525,1066.737,-4.671875,11.515625,-9.7109375,0.89868164,0.4031372,0.037902832,0.16851807,2370985,1013.06714,1022.4866,2.40625,6.7890625,-1.8789062,0.33166504,0.7128296,0.59503174,0.16662598
2370985.0,1068.1526,1065.4849,-3.7929688,11.671875,-9.519531,0.8981323,0.41680908,0.034240723,0.13598633,2371005,1015.4597,1024.2266,2.7890625,6.6328125,-1.84375,0.33703613,0.70458984,0.6040039,0.1585083
2371000.0,1069.259,1065.626,-4.4414062,9.0703125,-10.015625,0.89660645,0.42834473,0.02520752,0.109558105,2371030,1019.5503,1026.644,1.1796875,3.03125,-1.765625,0.35528564,0.71435547,0.5805054,0.16278076
2371020.0,1068.9072,1064.9475,-2.8710938,8.074219,-10.746094,0.8942261,0.4378662,0.008972168,0.09234619,2371045,1021.146,1028.0898,2.75,3.3828125,-3.4570312,0.38879395,0.7383423,0.5235596,0.17211914
2371045.0,1068.3933,1063.5781,-0.34375,5.5078125,-10.628906,0.89068604,0.44561768,-0.009460449,0.08929443,2371065,1022.53125,1029.5242,3.4414062,4.9140625,-7.6289062,0.42919922,0.76379395,0.44891357,0.17590332
2371065.0,1067.2883,1065.3794,-0.6875,3.09375,-10.5859375,0.88720703,0.45117188,-0.026000977,0.09289551,2371085,1026.6362,1030.6975,2.6367188,5.8320312,-9.160156,0.4689331,0.7836914,0.36621094,0.17840576
2371080.0,1067.344,1065.4861,-0.61328125,-0.31640625,-9.714844,0.88500977,0.45446777,-0.042114258,0.091674805,2371110,1027.3613,1030.7051,2.3671875,6.484375,-12.6015625,0.5031128,0.79956055,0.27313232,0.18151855
2371100.0,1068.0945,1065.7759,0.26953125,-2.8828125,-9.171875,0.8828125,0.45947266,-0.055358887,0.080322266,2371130,1026.7178,1030.6484,0.4140625,6.2148438,-13.371094,0.5307617,0.80773926,0.18133545,0.1817627
2371120.0,1067.5762,1066.2566,0.3828125,-4.875,-8.675781,0.87939453,0.4673462,-0.07324219,0.052978516,2371145,1029.5964,1030.544,-0.3515625,5.6015625,-12.8359375,0.55126953,0.80755615,0.09802246,0.18536377
2371140.0,1067.1221,1067.166,1.1523438,-3.9570312,-8.527344,0.87213135,0.48065186,-0.08905029,0.020935059,2371165,1031.9822,1030.448,-1.9609375,4.1484375,-11.457031,0.5609131,0.80493164,0.035095215,0.19018555
2371160.0,1066.6082,1067.5596,0.73046875,-3.8789062,-10.863281,-0.85913086,-0.501709,0.10076904,0.009399414,2371190,1033.2341,1030.4875,-2.9960938,1.6171875,-10.609375,0.56555176,0.80218506,-0.009155273,0.19134521
2371180.0,1066.7375,1067.5903,-0.6875,-3.1132812,-11.3515625,-0.8428345,-0.52404785,0.11633301,0.038085938,2371205,1033.5164,1030.469,-3.7617188,2.3476562,-11.308594,0.5710449,0.7971802,-0.038757324,0.19207764
2371200.0,1066.5029,1067.2429,2.3007812,-2.15625,-13.234375,-0.8257446,-0.5423584,0.1373291,0.07122803,2371225,1034.1436,1031.3027,-4.71875,1.0078125,-12.03125,0.5784302,0.7897339,-0.058898926,0.19567871
2371220.0,1066.0576,1066.4866,0.65234375,-3.1523438,-12.8515625,-0.8057251,-0.5617676,0.15570068,0.10455322,2371245,1035.3994,1031.8638,-0.890625,1.2734375,-11.4140625,0.5928955,0.7770996,-0.07885742,0.19573975
2371240.0,1065.2837,1066.5569,0.5,-2.8828125,-12.0078125,-0.78082275,-0.58758545,0.16503906,0.13366699,2371270,1037.6855,1031.5264,-0.54296875,0.81640625,-7.5078125,0.6102295,0.7609863,-0.104003906,0.19403076
2371260.0,1065.6372,1065.5471,-3.6757812,-3.9921875,-7.4101562,-0.7423096,-0.62854004,0.16802979,0.16046143,2371285,1038.8367,1030.929,-0.0859375,2.6132812,-8.390625,0.6323242,0.7404175,-0.13232422,0.18566895
2371280.0,1065.1492,1063.5134,-7.4335938,-2.3828125,-6.109375,-0.6946411,-0.6750488,0.16992188,0.18121338,2371305,1041.4036,1030.21,-0.390625,4.3789062,-7.4726562,0.6560669,0.7196045,-0.1473999,0.17321777
2371300.0,1064.2229,1061.4497,-7.390625,-1.9257812,-7.5234375,-0.63623047,-0.727417,0.17114258,0.19165039,2371325,1042.2766,1029.6714,0.3359375,4.7617188,-7.5078125,0.6779175,0.7022705,-0.15093994,0.15631104
2371330.0,1066.6426,1055.5945,-16.667969,6.9257812,-2.5078125,-0.50878906,-0.8241577,0.15924072,0.19110107,2371350,1044.7534,1029.1914,1.984375,7.2109375,-8.277344,0.6960449,0.68927,-0.14892578,0.13537598
2371350.0,1068.2478,1047.8313,-23.054688,10.027344,-0.8203125,-0.421875,-0.8769531,0.14807129,0.1762085,2371365,1046.0991,1028.479,4.0507812,8.78125,-7.78125,0.7131958,0.67755127,-0.13891602,0.11419678
2371370.0,1070.5249,1044.0974,-26.472656,13.628906,-2.6601562,-0.31500244,-0.93304443,0.12030029,0.12536621,2371385,1048.4163,1028.5574,4.0898438,11.808594,-9.734375,0.7318115,0.66467285,-0.112976074,0.09918213
2371390.0,1073.7178,1041.0586,-25.398438,13.628906,-9.441406,-0.22631836,-0.9666748,0.099731445,0.06628418,2371405,1049.874,1033.5869,3.9375,13.957031,-11.496094,0.7519531,0.64953613,-0.06732178,0.09033203
2371410.0,1074.8506,1039.531,-21.828125,17.574219,-13.65625,-0.1661377,-0.980896,0.10058594,0.00793457,2371430,1052.4717,1046.0063,0.22265625,12.5,-13.640625,0.7723999,0.6290283,-0.011291504,0.08703613
2371435.0,1077.1921,1040.7898,-14.8984375,14.316406,-18.828125,0.13171387,0.98413086,-0.105041504,0.05609131,2371445,1053.8848,1045.8445,2.7109375,9.96875,-13.683594,0.79071045,0.6045532,0.042175293,0.08648682
2371455.0,1076.2913,1050.7263,-5.9765625,7.0390625,-21.777344,0.09399414,0.9822998,-0.105041504,0.12310791,2371465,1057.5525,1050.1016,2.40625,8.972656,-11.3828125,0.7984619,0.5921631,0.07531738,0.07824707
2371470.0,1075.5076,1054.7517,-12.753906,7.8046875,-20.855469,0.037841797,0.97302246,-0.1071167,0.2006836,2371485,1058.7056,1046.8652,3.2851562,9.589844,-9.425781,0.79541016,0.59503174,0.093811035,0.066589355
2371490.0,1074.8352,1056.6084,-4.4414062,16.808594,-23.964844,-0.0015258789,0.95532227,-0.11621094,0.27166748,2371505,1060.6274,1044.8193,2.9414062,8.3984375,-11.2265625,0.7893677,0.6013794,0.1138916,0.047058105
2371510.0,1072.7556,1060.4666,-6.703125,12.441406,-18.09375,0.0015869141,0.9368286,-0.1251831,0.32659912,2371525,1061.2256,1048.5574,0.98828125,7.8632812,-13.605469,0.78619385,0.6003418,0.14483643,0.021606445
2371530.0,1071.9443,1062.138,-4.9804688,7.6132812,-16.761719,0.022460938,0.9215088,-0.13189697,0.36450195,2371545,1062.3213,1053.5339,-0.19921875,7.75,-14.027344,-0.78375244,-0.5934448,-0.18310547,0.004333496
2371550.0,1071.8313,1058.6733,-5.515625,-1.1601562,-12.46875,0.029846191,0.9048462,-0.13677979,0.40203857,2371565,1062.9104,1050.8376,-1.234375,6.5234375,-14.371094,-0.77948,-0.5836792,-0.2263794,0.022399902
2371575.0,1073.1553,1054.7249,-5.0546875,1.2539062,-7.1054688,0.023864746,0.88616943,-0.13757324,0.4418335,2371585,1066.1768,1052.273,0.03125,2.9960938,-13.066406,-0.77490234,-0.56951904,-0.27288818,0.026794434
2371590.0,1073.918,1050.3596,-4.6328125,0.7578125,-5.3476562,0.01159668,0.8666382,-0.124572754,0.48303223,2371605,1066.0823,1057.7957,1.8320312,0.9296875,-10.0390625,-0.7751465,-0.5410156,-0.32525635,0.024841309
2371615.0,1069.947,1041.8989,-4.2890625,-1.65625,-4.9609375,-0.0033569336,0.84454346,-0.09741211,0.5265503,2371625,1063.7104,1059.29,4.78125,-1.2148438,-8.5078125,-0.77801514,-0.5075073,-0.3687744,0.033203125
2371630.0,1068.5989,1049.5464,-5.8203125,-0.77734375,-9.363281,-0.030273438,0.8125,-0.059143066,0.57910156,2371645,1063.2554,1055.874,7.1171875,0.0859375,-7.7421875,-0.7730713,-0.493042,-0.39526367,0.055358887
2371660.0,1070.1357,1063.1318,-1.453125,2.3671875,-13.0390625,-0.07531738,0.7816162,-0.008300781,0.6191406,2371670,1063.8752,1059.1113,5.6601562,1.7734375,-6.1367188,-0.7553711,-0.49609375,-0.42016602,0.08203125
2371670.0,1070.1357,1063.4551,-5.1328125,3.3984375,-12.8828125,-0.1539917,0.75531006,0.0680542,0.6333618,2371685,1063.8455,1059.0173,5.96875,2.0039062,-6.1328125,-0.74438477,-0.4951172,-0.43762207,0.09613037
2371690.0,1071.9651,1064.7957,-2.7578125,3.5546875,-15.453125,-0.22955322,0.72491455,0.13079834,0.63616943,2371705,1065.4448,1059.0256,4.5898438,1.65625,-7.2460938,-0.73553467,-0.47503662,-0.47027588,0.11022949
2371715.0,1072.8171,1066.0337,-5.3203125,-1.5429688,-3.8476562,-0.29870605,0.6951904,0.18218994,0.62786865,2371725,1066.0767,1060.4441,3.171875,1.390625,-7.5859375,-0.7321167,-0.4329834,-0.5112915,0.122924805
2371735.0,1074.2698,1067.6045,-9.0390625,3.7460938,-3.8867188,-0.3355713,0.6722412,0.20983887,0.6256714,2371750,1067.1948,1062.8298,3.8984375,1.1992188,-6.515625,-0.73010254,-0.35882568,-0.5664673,0.1317749
2371750.0,1076.3022,1067.7161,-5.8984375,6.2773438,-2.6992188,-0.3623047,0.6444702,0.2420044,0.6282959,2371765,1067.3735,1064.2461,4.2070312,-0.56640625,-5.75,-0.72680664,-0.3125,-0.5965576,0.13500977
2371770.0,1077.4094,1068.1091,-6.890625,6.65625,-3.6171875,-0.38964844,0.6174927,0.28125,0.6227417,2371785,1068.6733,1064.3125,4.5117188,-0.10546875,-5.9375,-0.72198486,-0.26123047,-0.6262207,0.13531494
2371790.0,1079.689,1066.0681,-6.6640625,2.1367188,-2.890625,-0.40734863,0.59350586,0.32537842,0.6131592,2371805,1069.8774,1066.0955,6.234375,-1.140625,-4.484375,-0.7171631,-0.24420166,-0.6392822,0.13183594
2371810.0,1079.5852,1071.2588,-7.125,2.8242188,0.59375,-0.40820312,0.5803833,0.3540039,0.6092529,2371825,1071.8079,1067.0747,8.074219,2.421875,-1.1914062,-0.7128296,-0.25305176,-0.6418457,0.12585449
2371830.0,1080.1465,1075.0286,-7.9648438,4.7773438,0.05859375,-0.4133911,0.56030273,0.38806152,0.6038208,2371845,1072.8977,1068.4585,9.113281,4.9140625,-1.34375,-0.70544434,-0.26611328,-0.6469116,0.11431885
2371850.0,1082.354,1075.1396,-9.3046875,4.2421875,-0.32421875,-0.42260742,0.5339966,0.42755127,0.5944824,2371865,1074.832,1068.7227,8.1875,5.0273438,-1.0390625,-0.6937256,-0.27026367,-0.66064453,0.09613037
2371875.0,1084.5403,1077.8193,-9.3046875,4.2421875,0.98046875,-0.4281006,0.51031494,0.46569824,0.58258057,2371885,1075.9138,1071.0845,7.9609375,5.4101562,-1.1914062,-0.68200684,-0.26361084,-0.67840576,0.07208252
2371890.0,1086.6462,1078.5447,-10.730469,2.8242188,2.2421875,-0.4336548,0.4897461,0.5010376,0.56658936,2371915,1078.6079,1073.0139,8.765625,3.8789062,-0.578125,-0.67126465,-0.25299072,-0.69506836,0.04827881
2371910.0,1087.7478,1080.062,-12.40625,2.171875,4.234375,-0.43634033,0.46533203,0.5342407,0.5546875,2371925,1079.218,1075.7727,10.1796875,3.0742188,0.87890625,-0.6586914,-0.24182129,-0.71203613,0.02532959
2371940.0,1089.7087,1082.2529,-13.410156,1.0234375,4.9257812,-0.43182373,0.43927002,0.56518555,0.5488281,2371945,1081.552,1077.5928,11.171875,2.7695312,1.2226562,-0.64276123,-0.23071289,-0.7305298,0.0020751953
2371950.0,1090.1221,1082.2529,-13.515625,1.140625,5.1523438,-0.41314697,0.41412354,0.5961914,0.5498657,2371970,1082.0869,1078.5508,11.332031,4.53125,2.2578125,0.62438965,0.2265625,0.74731445,0.018188477
2371970.0,1091.7222,1083.5469,-13.558594,-1.1601562,6.7265625,-0.39050293,0.4006958,0.61639404,0.5541382,2371990,1083.8413,1079.7505,11.5234375,5.7578125,3.328125,0.6060791,0.22644043,0.7616577,0.03503418
2371990.0,1092.9448,1083.4949,-13.910156,-1.234375,8.371094,-0.3554077,0.39752197,0.63165283,0.56274414,2372005,1085.1743,1080.7493,12.1328125,5.1796875,4.171875,0.58551025,0.2331543,0.77471924,0.050842285
2372010.0,1094.7886,1084.8452,-16.429688,3.3242188,10.324219,-0.30981445,0.40625,0.64056396,0.5732422,2372025,1085.5078,1081.5376,12.363281,4.6054688,4.5546875,0.5634155,0.26184082,0.7811279,0.0625
2372030.0,1094.3691,1085.3452,-16.433594,4.625,11.089844,-0.2695923,0.41644287,0.645874,0.58026123,2372050,1085.3557,1083.552,12.09375,7.8632812,5.015625,0.54089355,0.30474854,0.78063965,0.07165527
2372050.0,1093.5532,1086.6484,-17.160156,6.234375,9.980469,-0.21697998,0.4312744,0.6516113,0.585083,2372070,1084.2217,1084.2278,11.332031,9.128906,5.28125,0.51483154,0.35125732,0.77783203,0.08062744
2372070.0,1090.9883,1086.3801,-15.824219,8.53125,8.21875,-0.15093994,0.44885254,0.659729,0.5835571,2372085,1083.9158,1083.729,11.144531,10.890625,4.3242188,0.48651123,0.39398193,0.77453613,0.09033203
2372095.0,1088.9194,1086.6306,-15.4765625,9.453125,8.140625,-0.101989746,0.4628296,0.66796875,0.5737915,2372105,1083.3823,1084.5344,11.214844,11.238281,3.328125,0.456604,0.4376831,0.76727295,0.105895996
2372110.0,1086.5464,1086.0398,-13.5546875,10.1796875,7.71875,-0.047607422,0.47894287,0.6790161,0.5543213,2372130,1082.2493,1085.1814,8.574219,12.269531,2.1015625,0.4267578,0.49353027,0.7468262,0.12878418
2372130.0,1085.2012,1084.3259,-13.1328125,10.21875,8.5234375,0.006713867,0.49761963,0.68743896,0.52893066,2372145,1081.8633,1083.9917,6.0820312,13.03125,2.6015625,0.39453125,0.55511475,0.7160034,0.15344238
2372150.0,1082.4111,1082.322,-9.957031,12.015625,7.1835938,0.07196045,0.5209961,0.6946411,0.49072266,2372165,1079.4521,1082.8188,5.6210938,13.691406,1.71875,0.3591919,0.61450195,0.6798096,0.17675781
2372170.0,1080.3789,1083.21,-9.574219,13.058594,7.109375,0.1194458,0.5378418,0.70233154,0.45080566,2372185,1078.8354,1081.0886,3.859375,14.800781,1.1835938,0.32452393,0.6628418,0.64331055,0.20367432
2372190.0,1077.3013,1073.8481,-8.1953125,14.550781,5.2695312,0.16870117,0.555542,0.71307373,0.39294434,2372210,1079.1143,1080.1836,1.2929688,14.144531,1.4140625,0.29058838,0.7069092,0.59991455,0.23651123
2372210.0,1075.0173,1074.2908,-6.9335938,10.371094,7.1445312,0.22265625,0.5778198,0.72076416,0.3116455,2372225,1078.4355,1077.2693,-0.8125,14.183594,0.265625,0.25567627,0.74572754,0.55426025,0.26708984
2372230.0,1070.2515,1070.8535,-5.0546875,9.074219,6.0742188,0.25872803,0.6000366,0.7171631,0.24224854,2372245,1076.0122,1077.96,-1.8867188,13.53125,-0.34765625,0.22497559,0.777771,0.5097046,0.29083252
2372250.0,1070.6667,1071.1257,-4.4023438,6.1953125,4.5039062,0.28741455,0.6242676,0.7092285,0.15679932,2372265,1076.1072,1076.5305,-2.7265625,10.125,0.33984375,0.20056152,0.807312,0.45874023,0.31237793
2372270.0,1072.0315,1065.7397,-1.03125,2.75,9.6328125,0.30639648,0.6392822,0.6995239,0.09020996,2372290,1074.9756,1071.8059,-5.6015625,7.4765625,-2.1484375,0.18341064,0.8394165,0.38946533,0.33172607
2372290.0,1071.1475,1061.415,5.4414062,1.2148438,8.9453125,0.33251953,0.6652832,0.66748047,0.036193848,2372305,1074.7712,1070.1492,-5.7929688,6.75,-3.6445312,0.18292236,0.8555298,0.34381104,0.34124756
2372305.0,1069.1499,1060.3599,6.890625,1.6367188,4.1210938,-0.36486816,-0.701416,-0.6119385,0.019897461,2372325,1073.2583,1067.5027,-5.5234375,5.7929688,-4.7539062,0.19226074,0.8696289,0.2915039,0.34906006
2372330.0,1071.8867,1057.6423,4.2929688,3.515625,0.90234375,-0.39318848,-0.7293091,-0.5557251,0.06878662,2372345,1074.2339,1067.55,-4.6796875,5.7617188,-5.5585938,0.20367432,0.87646484,0.25250244,0.35577393
2372350.0,1069.6746,1057.2522,1.9960938,-0.31640625,0.40234375,-0.40960693,-0.7515259,-0.50787354,0.097595215,2372370,1073.0088,1063.5618,-3.7226562,3.796875,-1.9570312,0.21801758,0.881958,0.21105957,0.36071777
2372365.0,1066.6211,1051.5564,3.21875,-0.35546875,1.5546875,-0.41705322,-0.7714844,-0.46948242,0.10235596,2372385,1071.3464,1064.6165,-4.4882812,3.9179688,-4.671875,0.22198486,0.8880005,0.17932129,0.3605957
2372390.0,1063.763,1050.604,3.7890625,0.984375,1.3632812,-0.4272461,-0.7947998,-0.41833496,0.10357666,2372405,1070.2666,1063.9976,-3.9179688,3.2265625,-3.2226562,0.2185669,0.89697266,0.1348877,0.35986328
2372405.0,1062.0549,1050.529,6.0546875,-0.0078125,0.75,-0.4411621,-0.81622314,-0.35827637,0.10406494,2372425,1069.7964,1063.5613,-3.609375,1.734375,-2.953125,0.21594238,0.90625,0.08734131,0.35272217
2372430.0,1064.0417,1049.6384,2.109375,-6.4492188,-2.2382812,-0.44335938,-0.8352661,-0.30462646,0.11407471,2372445,1067.5312,1062.5696,-1.3476562,-0.3359375,-4.7890625,0.2211914,0.91503906,0.048706055,0.33374023
2372445.0,1067.6509,1048.8999,3.0273438,-6.7109375,-3.8476562,-0.4352417,-0.8547363,-0.25146484,0.12927246,2372465,1067.3481,1062.1841,-2.9570312,-0.71875,-5.671875,0.23632812,0.91986084,0.034057617,0.3112793
2372470.0,1070.6736,1045.31,4.2148438,-4.875,-5.8398438,-0.42852783,-0.8687134,-0.19110107,0.15881348,2372485,1067.196,1063.721,-4.03125,-2.0585938,-7.7421875,0.25952148,0.9211426,0.03704834,0.28771973
2372490.0,1075.6628,1044.8115,4.2929688,-4.6445312,-5.34375,-0.4225464,-0.8742676,-0.107543945,0.21350098,2372505,1068.2771,1064.6958,-7.859375,-3.8203125,-6.8984375,0.27929688,0.9224243,0.03363037,0.26464844
2372510.0,1078.5112,1042.5928,7.6992188,-5.8320312,-6.53125,-0.4171753,-0.87072754,-0.053588867,0.25476074,2372525,1070.6426,1066.304,-10.1171875,-4.203125,-5.8632812,0.29034424,0.9226074,0.02368164,0.25280762
2372525.0,1082.5815,1040.8247,8.582031,-6.3320312,-7.4882812,-0.4086914,-0.86328125,-0.0025634766,0.29608154,2372545,1071.3262,1066.2236,-10.8125,-3.3242188,-4.6015625,0.303833,0.91955566,0.025817871,0.24780273
2372545.0,1084.6113,1039.054,9.277344,-5.3359375,-7.8320312,-0.3945923,-0.8643799,0.02734375,0.31048584,2372565,1072.46,1066.0183,-10.1953125,-5.3515625,-5.9804688,0.32537842,0.91223145,0.044433594,0.24499512
2372565.0,1079.4565,1040.4009,5.9765625,0.06640625,-8.371094,-0.3696289,-0.885437,0.03125,0.2800293,2372585,1074.102,1048.9817,-10.1171875,-3.78125,-4.640625,0.34454346,0.90374756,0.06744385,0.24481201
2372585.0,1081.1985,1043.5571,5.1328125,5.3515625,-3.5039062,-0.34680176,-0.90734863,0.02734375,0.23602295,2372605,1072.7852,1050.2031,-4.8789062,0.203125,-4.1015625,0.36169434,0.8987427,0.071777344,0.23718262
2372610.0,1079.0417,1047.3845,5.703125,5.6210938,-1.9726562,-0.3345337,-0.921875,0.034606934,0.19250488,2372625,1073.8425,1055.99,-5.21875,3.3828125,-7.125,0.3809204,0.8954468,0.059753418,0.22241211
2372630.0,1082.7446,1037.5186,12.796875,0.7578125,-9.171875,-0.33129883,-0.92681885,0.039733887,0.17218018,2372645,1074.4932,1060.0161,-4.9101562,4.6054688,-4.8320312,0.40179443,0.8894043,0.05328369,0.21124268
2372645.0,1080.0754,1038.5928,14.332031,2.8242188,-8.40625,-0.33239746,-0.9248047,0.05279541,0.17730713,2372665,1076.1785,1063.0115,-5.3710938,8.972656,-6.7460938,0.41101074,0.8864746,0.06335449,0.203125
2372665.0,1086.2173,1042.8845,11.535156,1.828125,-7.71875,-0.336792,-0.92126465,0.04925537,0.18811035,2372685,1081.3057,1064.2322,-11.8828125,4.03125,-4.4492188,0.40667725,0.88830566,0.07080078,0.20123291
2372685.0,1089.0332,1043.8503,11.0703125,0.71875,-7.1796875,-0.3413086,-0.9194336,0.03704834,0.1918335,2372705,1082.3098,1066.1792,-14.2578125,0.203125,-3.6445312,0.39941406,0.8909302,0.069885254,0.20446777
2372705.0,1096.3958,1035.5366,9.582031,-3.1875,-5.1875,-0.3433838,-0.9187622,0.022460938,0.19342041,2372725,1087.2378,1060.4714,-14.300781,0.77734375,-4.0625,0.39648438,0.892334,0.05987549,0.20721436
2372725.0,1096.1382,1038.1228,9.769531,-2.5,-6.109375,-0.33789062,-0.9204712,0.0211792,0.19525146,2372745,1088.2112,1059.9702,-12.347656,4.3789062,-5.7890625,0.39337158,0.8931885,0.04852295,0.21246338
2372745.0,1087.0847,1046.0103,6.859375,-1.6171875,-8.6328125,-0.33239746,-0.92370605,0.023498535,0.18890381,2372765,1088.6545,1055.5674,-9.699219,6.5976562,-8.5078125,0.39422607,0.8905029,0.04650879,0.222229
2372770.0,1082.5793,1053.4451,-5.859375,-6.2148438,-14.9140625,-0.3239746,-0.9299927,0.015258789,0.1730957,2372785,1085.689,1058.6113,-2.6914062,4.3398438,-9.2734375,0.39648438,0.88897705,0.04840088,0.22399902
2372785.0,1081.1963,1056.4685,-0.57421875,-1.0820312,-12.394531,-0.31652832,-0.9352417,0.0005493164,0.1586914,2372805,1079.7585,1055.1528,3.59375,-1.0234375,-11.609375,0.39556885,0.8916626,0.041748047,0.21618652
2372805.0,1082.9788,1057.638,-1.953125,1.2539062,-13.582031,-0.3131714,-0.93774414,-0.009094238,0.15002441,2372830,1075.0151,1059.002,1.640625,3.1132812,-14.910156,0.39263916,0.89660645,0.027526855,0.20288086
2372825.0,1082.9458,1053.3291,2.7578125,-1.2734375,-14.2265625,-0.31079102,-0.9382324,-0.009338379,0.15185547,2372845,1075.0217,1059.095,-1.6171875,5.375,-14.59375,0.39093018,0.899353,0.02142334,0.19470215
2372845.0,1085.0361,1059.3945,3.6796875,-2.6523438,-13.003906,-0.30895996,-0.9375,-0.00793457,0.15979004,2372865,1077.0503,1064.311,-3.0742188,4.9140625,-14.488281,0.38757324,0.9011841,0.02319336,0.19256592
2372865.0,1085.2158,1054.113,1.4570312,-1.3515625,-12.816406,-0.305542,-0.9373779,-0.0099487305,0.16680908,2372885,1076.948,1070.7358,-3.1875,2.921875,-14.175781,0.3848877,0.9016113,0.028625488,0.19543457
2372885.0,1084.1565,1049.2573,2.4921875,-2.6523438,-12.355469,-0.30236816,-0.9373779,-0.011474609,0.17248535,2372910,1077.1584,1072.1775,-3.4179688,1.65625,-12.3359375,0.38305664,0.90093994,0.031311035,0.20129395
2372910.0,1081.2783,1058.9028,1.1132812,-3.0742188,-9.59375,-0.29748535,-0.9378662,-0.011352539,0.17816162,2372925,1078.0747,1065.9504,-1.1953125,2.9960938,-11.996094,0.38220215,0.89941406,0.029846191,0.20996094
2372925.0,1081.2258,1060.3992,1.9179688,-2.15625,-9.714844,-0.2911377,-0.93914795,-0.009521484,0.1819458,2372945,1078.8425,1070.0527,-0.16015625,2.84375,-10.8828125,0.38067627,0.8983154,0.027038574,0.21765137
2372945.0,1082.9778,1055.2183,1.609375,-1.5820312,-9.7421875,-0.2849121,-0.94091797,-0.012207031,0.18267822,2372965,1075.2168,1066.4695,0.10546875,1.5039062,-10.652344,0.3770752,0.8987427,0.023498535,0.22271729
2372965.0,1086.0708,1058.581,1.7617188,-1.4257812,-9.636719,-0.27893066,-0.94299316,-0.016723633,0.1807251,2372990,1075.5693,1074.2373,-2.1523438,0.9296875,-10.082031,0.3710327,0.90057373,0.01953125,0.2255249
2372985.0,1084.4622,1060.6284,1.3789062,-1.8085938,-9.441406,-0.2746582,-0.9439697,-0.01953125,0.18206787,2373005,1076.6763,1066.0803,-1.8867188,2.7695312,-10.808594,0.3640747,0.90270996,0.014343262,0.22875977
2373005.0,1080.9949,1057.6252,1.34375,-1.5820312,-9.7109375,-0.27111816,-0.94470215,-0.02368164,0.18304443,2373025,1075.4363,1072.1667,-1.5039062,3.34375,-10.613281,0.35803223,0.90423584,0.014831543,0.23217773
2373025.0,1079.8201,1050.9526,0.34765625,-0.9296875,-9.9375,-0.2675171,-0.9459839,-0.028198242,0.18096924,2373045,1075.9417,1066.1353,-2.0390625,1.5820312,-10.652344,0.35412598,0.9048462,0.018432617,0.23553467
2373050.0,1078.1831,1062.2019,1.6484375,-2.1171875,-9.519531,-0.26367188,-0.9475708,-0.029785156,0.17803955,2373070,1077.1543,1068.292,-1.3476562,1.6953125,-9.121094,0.35083008,0.9055176,0.020629883,0.2376709
2373065.0,1077.4651,1060.1248,1.3046875,-1.5039062,-9.7421875,-0.25878906,-0.9494629,-0.030029297,0.17510986,2373085,1076.6677,1066.2219,-1.0429688,1.9648438,-8.738281,0.34649658,0.90686035,0.020080566,0.23895264
2373085.0,1077.832,1057.6108,1.609375,-0.73828125,-10.824219,-0.2539673,-0.95111084,-0.03186035,0.17272949,2373105,1075.4072,1071.1682,-1.2734375,2.0039062,-9.65625,0.3416748,0.9088745,0.018798828,0.23840332
2373105.0,1078.8958,1060.2678,2.3398438,-0.125,-10.707031,-0.25042725,-0.9522095,-0.036193848,0.17120361,2373125,1075.4104,1074.4094,-2.8046875,1.8085938,-10.5390625,0.33728027,0.91070557,0.018127441,0.23779297
2373125.0,1078.1592,1061.2798,1.7617188,-1.3515625,-9.902344,-0.24584961,-0.9537964,-0.03881836,0.168396,2373150,1075.8462,1073.5149,-2.8828125,1.0429688,-9.234375,0.33410645,0.9116821,0.01373291,0.2388916
2373145.0,1076.7039,1058.47,1.8398438,1.140625,-10.96875,-0.24334717,-0.9550171,-0.04058838,0.16467285,2373165,1075.0127,1070.7451,-2.3046875,1.4257812,-11.035156,0.33441162,0.91174316,0.010986328,0.23828125
2373165.0,1073.5825,1062.2114,1.953125,-1.390625,-10.128906,-0.24176025,-0.95532227,-0.039733887,0.16534424,2373185,1073.8601,1071.6028,-2.2304688,2.7304688,-11.53125,0.33392334,0.9118042,0.0095825195,0.23876953
2373190.0,1075.6726,1057.6355,1.7265625,-0.62109375,-9.7109375,-0.23968506,-0.9559326,-0.042175293,0.16436768,2373205,1074.6411,1075.6123,-2.4609375,2.3085938,-9.921875,0.33251953,0.9123535,0.011291504,0.23846436
2373205.0,1078.7244,1059.1975,1.34375,-0.4296875,-8.636719,-0.23852539,-0.9567261,-0.04559326,0.16040039,2373230,1073.438,1076.2793,-2.9960938,0.5859375,-9.4609375,0.32922363,0.9137573,0.010253906,0.23791504
2373225.0,1080.3562,1060.2837,1.8789062,-1.1953125,-7.0273438,-0.23712158,-0.9576416,-0.047180176,0.15649414,2373245,1073.9331,1074.6655,-1.0429688,1.7734375,-8.65625,0.3260498,0.91503906,0.00793457,0.23736572
2373245.0,1075.727,1058.9338,1.1132812,-0.35546875,-7.0234375,-0.23486328,-0.95880127,-0.046020508,0.15307617,2373265,1074.0662,1072.4292,-1.3867188,1.6953125,-8.238281,0.32202148,0.91674805,0.005126953,0.23626709
2373265.0,1076.6067,1058.5149,0.99609375,-0.0078125,-7.6445312,-0.23364258,-0.9594116,-0.04296875,0.1519165,2373285,1073.447,1067.3582,-1.3867188,1.2734375,-6.859375,0.31799316,0.9187622,0.0030517578,0.23394775
2373285.0,1079.6431,1061.3613,1.1523438,-0.1640625,-7.3710938,-0.23260498,-0.960083,-0.039733887,0.15014648,2373310,1075.4602,1065.9343,-1.7304688,1.0820312,-7.046875,0.31433105,0.92041016,0.0049438477,0.23242188
2373305.0,1077.9043,1061.3713,0.65234375,0.14453125,-8.0234375,-0.23144531,-0.9611206,-0.036315918,0.14611816,2373325,1073.4697,1067.3357,-2.34375,0.203125,-7.015625,0.31262207,0.9215698,0.0059814453,0.23016357
2373330.0,1078.5979,1056.6663,0.5,0.10546875,-8.910156,-0.23071289,-0.96209717,-0.032592773,0.14154053,2373345,1072.8677,1067.6892,-2.2304688,0.81640625,-8.699219,0.31140137,0.9227905,0.007507324,0.2267456
2373345.0,1078.866,1058.7014,0.69140625,0.640625,-9.785156,-0.23010254,-0.9628296,-0.029663086,0.13806152,2373365,1073.8674,1069.8745,-2.1523438,0.66015625,-7.8242188,0.31152344,0.923645,0.010803223,0.2230835
2373365.0,1079.0713,1059.5244,1.0351562,1.140625,-9.671875,-0.230896,-0.9628906,-0.028808594,0.13665771,2373390,1073.0784,1067.9155,-2.0,-0.48828125,-8.972656,0.31176758,0.92401123,0.012023926,0.2210083
2373385.0,1079.1348,1058.3862,1.3789062,0.71875,-9.675781,-0.23297119,-0.9627075,-0.028564453,0.13439941,2373405,1073.2556,1070.1929,-2.5,-0.1796875,-9.464844,0.31188965,0.9242554,0.011779785,0.21984863
2373405.0,1080.7815,1056.3535,1.7617188,0.18359375,-9.1328125,-0.23461914,-0.9628296,-0.028869629,0.1307373,2373425,1074.7134,1071.0562,-2.3046875,0.0859375,-9.082031,0.3125,0.92456055,0.011169434,0.21765137
2373425.0,1081.459,1054.8198,1.9179688,0.2578125,-9.4765625,-0.2355957,-0.96325684,-0.028686523,0.12573242,2373445,1073.6394,1067.4495,-2.6914062,0.4296875,-8.972656,0.31304932,0.9251709,0.009338379,0.21429443
2373450.0,1081.9719,1059.9485,2.0703125,0.02734375,-10.402344,-0.23596191,-0.96380615,-0.028869629,0.120788574,2373470,1073.915,1066.4077,-3.109375,1.0429688,-10.003906,0.3133545,0.92645264,0.0076904297,0.20837402
2373470.0,1081.8142,1057.6992,1.5703125,0.296875,-11.125,-0.23602295,-0.9642334,-0.03161621,0.11639404,2373485,1074.1797,1070.4404,-2.9179688,0.31640625,-9.582031,0.3131714,0.92749023,0.0064086914,0.20397949
2373485.0,1083.304,1058.7446,1.9921875,0.6015625,-10.96875,-0.23718262,-0.96398926,-0.0335083,0.115722656,2373505,1073.4387,1066.6091,-3.1875,0.23828125,-9.578125,0.3125,0.92871094,0.0020751953,0.19952393
2373505.0,1084.1426,1056.6389,2.9492188,0.640625,-11.0078125,-0.23864746,-0.96325684,-0.034362793,0.11846924,2373530,1072.9846,1069.763,-3.109375,1.65625,-10.925781,0.31207275,0.92962646,-0.0009765625,0.19592285
2373525.0,1086.001,1058.8706,3.8320312,0.7578125,-11.625,-0.23999023,-0.9623413,-0.0345459,0.12286377,2373550,1073.1294,1068.7114,-5.1015625,1.8085938,-11.417969,0.3128662,0.92962646,-6.1035156e-05,0.19476318
2373545.0,1085.7122,1058.0549,6.4765625,1.1796875,-10.441406,-0.24029541,-0.9614868,-0.03704834,0.1281128,2373570,1073.7563,1069.064,-6.2890625,2.3476562,-10.9609375,0.3140869,0.928833,0.004211426,0.19659424
2373565.0,1085.3464,1055.821,5.9375,1.1015625,-9.746094,-0.2399292,-0.9603882,-0.042663574,0.13519287,2373585,1074.7332,1068.8167,-7.4023438,1.6171875,-8.96875,0.31451416,0.9273071,0.0078125,0.20281982
2373585.0,1083.5903,1056.3411,4.328125,0.83203125,-10.167969,-0.24017334,-0.9586792,-0.046203613,0.1451416,2373610,1075.2356,1069.8999,-7.25,1.4257812,-7.6289062,0.3123169,0.92614746,0.0048828125,0.21142578
2373610.0,1083.0151,1058.9185,3.2578125,-0.8125,-11.2421875,-0.24053955,-0.9569702,-0.04699707,0.15527344,2373625,1074.263,1070.3887,-4.453125,3.1132812,-11.035156,0.30889893,0.92523193,0.0045776367,0.22021484
2373625.0,1079.9377,1058.5312,2.5664062,-1.1210938,-11.816406,-0.23999023,-0.9555664,-0.047607422,0.16442871,2373645,1069.4199,1070.8225,-4.296875,2.921875,-10.5,0.30566406,0.9243164,0.008850098,0.22821045
2373645.0,1079.7039,1054.1201,1.609375,-1.4648438,-12.3125,-0.23876953,-0.95458984,-0.050109863,0.17095947,2373665,1071.8416,1065.3635,-2.8828125,2.0390625,-11.53125,0.30316162,0.92333984,0.013427734,0.23535156
2373665.0,1078.0085,1055.7095,1.2265625,-1.1953125,-13.15625,-0.23779297,-0.9534912,-0.055603027,0.17681885,2373690,1071.4121,1068.803,-2.0,0.77734375,-10.8828125,0.30029297,0.9227295,0.012145996,0.24139404
2373685.0,1074.6963,1055.0554,1.34375,-0.27734375,-12.15625,-0.23675537,-0.9527588,-0.061401367,0.18005371,2373705,1070.8342,1065.3066,-2.2695312,1.0429688,-12.496094,0.29681396,0.92266846,0.0059814453,0.24615479
2373705.0,1074.2263,1054.4888,2.0703125,0.06640625,-11.738281,-0.2355957,-0.95184326,-0.06628418,0.18463135,2373725,1068.6794,1067.9019,-3.0742188,1.8867188,-12.644531,0.29406738,0.92211914,0.00012207031,0.25134277
2373725.0,1073.404,1054.6504,2.3398438,0.44921875,-11.8515625,-0.23461914,-0.9505005,-0.07043457,0.19104004,2373745,1069.2112,1066.846,-3.609375,2.15625,-11.996094,0.2923584,0.92089844,-0.0021362305,0.25793457
2373745.0,1072.907,1052.8757,2.8359375,0.6015625,-11.5859375,-0.23468018,-0.9484863,-0.07556152,0.19903564,2373770,1068.7131,1063.6768,-4.296875,1.390625,-11.1484375,0.29077148,0.9188843,-0.0015258789,0.26654053
2373770.0,1069.8318,1052.2375,2.875,0.21875,-10.0546875,-0.2355957,-0.946228,-0.08111572,0.20629883,2373785,1068.8652,1062.8733,-4.1054688,0.81640625,-9.964844,0.28967285,0.9163208,-0.0016479492,0.2765503
2373785.0,1071.1382,1050.2754,2.9882812,-0.1640625,-8.753906,-0.2368164,-0.94403076,-0.0859375,0.21282959,2373805,1068.3293,1062.5825,-3.53125,1.1601562,-10.421875,0.2897339,0.9133301,-0.0036621094,0.28607178
2373805.0,1071.1262,1051.3389,3.140625,-0.1640625,-7.7929688,-0.2376709,-0.94244385,-0.087524414,0.21820068,2373825,1067.6643,1063.6306,-3.3398438,1.6953125,-9.15625,0.29083252,0.91033936,-0.0052490234,0.29431152
2373825.0,1070.8579,1053.8396,3.6796875,-0.046875,-5.9570312,-0.23822021,-0.9412842,-0.08685303,0.22302246,2373850,1067.7339,1065.3765,-2.8828125,2.0390625,-7.2070312,0.2919922,0.9078369,-0.003540039,0.30090332
2373845.0,1071.2336,1047.5427,3.3710938,-0.27734375,-5.1523438,-0.23852539,-0.9406128,-0.08483887,0.22625732,2373870,1066.987,1062.6172,-3.0351562,2.3476562,-6.78125,0.29229736,0.90625,6.1035156e-05,0.30541992
2373865.0,1071.1052,1052.0996,2.9492188,-0.35546875,-4.15625,-0.2376709,-0.94091797,-0.08270264,0.22650146,2373890,1065.6951,1062.3267,-2.765625,1.65625,-5.0546875,0.29162598,0.90563965,0.0037841797,0.30786133
2373885.0,1070.4858,1054.1636,2.1445312,-0.0078125,-3.9257812,-0.23632812,-0.9423218,-0.07836914,0.22357178,2373905,1066.2898,1064.4463,-2.5351562,1.4648438,-4.4882812,0.29022217,0.9058838,0.0059814453,0.30847168
2373905.0,1071.4592,1051.5562,1.1523438,-0.35546875,-4.078125,-0.2355957,-0.9442749,-0.071777344,0.21832275,2373930,1065.323,1059.4714,-1.1171875,1.0429688,-4.2929688,0.28894043,0.90753174,0.0076293945,0.30474854
2373925.0,1069.3225,1052.8491,0.4609375,-0.0859375,-5.03125,-0.23504639,-0.9466553,-0.064208984,0.21081543,2373950,1065.7703,1059.5349,-1.1953125,1.0078125,-4.90625,0.28863525,0.9100952,0.010559082,0.29718018
2373945.0,1067.6982,1051.197,0.34765625,-0.23828125,-6.7226562,-0.2355957,-0.9487915,-0.055908203,0.20275879,2373970,1064.8667,1058.4268,-1.8476562,0.5078125,-5.6328125,0.289917,0.91290283,0.016723633,0.28686523
2373965.0,1067.0295,1053.8088,1.5703125,-1.0820312,-7.5625,-0.23736572,-0.9503784,-0.04748535,0.19555664,2373990,1065.6174,1058.3113,-1.3125,1.0429688,-6.2460938,0.29284668,0.91485596,0.023254395,0.2770996
2373985.0,1067.1804,1054.3896,2.109375,-0.96875,-7.984375,-0.23858643,-0.95202637,-0.04119873,0.18701172,2374010,1065.5911,1059.9729,-1.1953125,0.62109375,-6.7070312,0.2956543,0.91607666,0.027160645,0.2694702
2374005.0,1068.146,1052.7012,2.2226562,-0.66015625,-8.7890625,-0.2388916,-0.9541626,-0.03564453,0.17675781,2374030,1065.3938,1058.4092,-2.1523438,1.234375,-8.0859375,0.29711914,0.9180298,0.027709961,0.26098633
2374025.0,1067.029,1053.1289,2.6835938,-0.35546875,-9.09375,-0.23876953,-0.9562988,-0.027648926,0.16662598,2374050,1065.0483,1060.1072,-2.5,2.3867188,-8.7734375,0.29803467,0.9203491,0.027648926,0.25170898
2374045.0,1066.5305,1052.6643,2.6445312,-0.046875,-10.972656,-0.23815918,-0.9581299,-0.01928711,0.15771484,2374070,1064.8333,1059.51,-2.6132812,2.7695312,-9.542969,0.29840088,0.9227295,0.02923584,0.24224854
2374065.0,1066.4045,1052.2515,2.7226562,-0.0078125,-11.667969,-0.2376709,-0.95947266,-0.0138549805,0.15057373,2374090,1064.7327,1059.8115,-4.3359375,1.3125,-10.230469,0.29840088,0.92523193,0.03326416,0.23187256
2374085.0,1066.5203,1051.5232,2.7578125,0.10546875,-12.15625,-0.23797607,-0.960022,-0.011413574,0.14703369,2374110,1066.0854,1060.009,-4.7578125,1.1992188,-10.15625,0.29840088,0.92681885,0.034851074,0.22528076
2374110.0,1069.3157,1053.469,4.1015625,0.6796875,-12.046875,-0.23931885,-0.95965576,-0.010253906,0.14727783,2374130,1064.4053,1061.3503,-4.796875,1.1210938,-10.199219,0.29858398,0.9279175,0.03314209,0.22058105
2374125.0,1070.2051,1053.1787,5.3242188,0.640625,-11.472656,-0.24133301,-0.95892334,-0.010498047,0.14868164,2374150,1065.4307,1061.7964,-5.5234375,2.0039062,-11.839844,0.29937744,0.9283447,0.031799316,0.21813965
2374145.0,1073.4509,1052.6602,7.0117188,1.0234375,-11.433594,-0.2423706,-0.9584961,-0.012817383,0.1494751,2374170,1065.7612,1062.2954,-8.089844,1.9648438,-10.9921875,0.3010254,0.92785645,0.03289795,0.21777344
2374165.0,1073.499,1053.0059,7.6640625,1.3710938,-11.203125,-0.24304199,-0.9577637,-0.016052246,0.15289307,2374190,1066.6367,1063.0764,-9.203125,2.3867188,-9.808594,0.30255127,0.9267578,0.033569336,0.22015381
2374185.0,1072.9309,1050.4714,5.59375,0.375,-10.667969,-0.24359131,-0.9567261,-0.018859863,0.15826416,2374210,1066.031,1064.1726,-8.628906,3.1132812,-9.925781,0.30340576,0.9251709,0.0345459,0.2253418
2374205.0,1071.9326,1049.6526,4.328125,-0.39453125,-10.667969,-0.24383545,-0.95544434,-0.024353027,0.16442871,2374230,1067.0901,1061.2136,-7.7460938,3.0351562,-9.777344,0.3031006,0.92370605,0.036865234,0.23150635
2374225.0,1069.9031,1051.6982,3.296875,-0.77734375,-10.902344,-0.24420166,-0.9539795,-0.03137207,0.17126465,2374250,1066.8818,1060.947,-4.6445312,1.3515625,-8.203125,0.3007202,0.9224243,0.035095215,0.2397461
2374245.0,1068.0247,1050.8887,1.6484375,-1.8085938,-10.902344,-0.24456787,-0.9525757,-0.035827637,0.1774292,2374270,1065.2507,1061.2856,-3.609375,2.4609375,-10.578125,0.29797363,0.92181396,0.028930664,0.24633789
2374265.0,1065.676,1051.9216,1.5703125,-2.2304688,-11.546875,-0.2444458,-0.95184326,-0.03869629,0.18109131,2374290,1063.773,1061.3403,-2.5351562,3.3828125,-11.953125,0.2958374,0.92077637,0.023498535,0.2531128
2374285.0,1064.3296,1051.0667,1.4960938,-2.1914062,-11.855469,-0.24328613,-0.9517212,-0.041931152,0.18249512,2374310,1063.7039,1061.7258,-2.1523438,2.5,-11.347656,0.29467773,0.91955566,0.019470215,0.2592163
2374305.0,1061.8408,1049.5708,2.3007812,-1.8085938,-12.1171875,-0.24139404,-0.9517212,-0.044189453,0.18450928,2374330,1062.4717,1057.3816,-2.6914062,2.921875,-12.109375,0.29382324,0.918396,0.01586914,0.26452637
2374325.0,1061.2158,1050.1145,3.3320312,-0.66015625,-11.394531,-0.23937988,-0.95111084,-0.04663086,0.18933105,2374350,1061.5662,1060.6919,-3.109375,3.1914062,-11.4921875,0.29241943,0.91748047,0.013549805,0.2692871
2374345.0,1062.084,1047.4492,3.6015625,-0.5078125,-10.859375,-0.2376709,-0.9503784,-0.049865723,0.19439697,2374370,1060.5039,1057.7673,-4.1835938,2.9960938,-11.308594,0.2901001,0.91638184,0.0126953125,0.27563477
2374365.0,1060.2427,1046.6392,3.7929688,-0.39453125,-10.480469,-0.23602295,-0.94989014,-0.054016113,0.19781494,2374390,1060.5576,1058.3896,-4.4882812,2.578125,-11.152344,0.28692627,0.91534424,0.013549805,0.28222656
2374385.0,1057.7019,1047.0432,3.3320312,-0.8515625,-9.214844,-0.23486328,-0.9493408,-0.058532715,0.20050049,2374410,1059.7556,1057.2607,-4.6054688,1.7734375,-9.082031,0.28430176,0.9144287,0.013244629,0.28771973
2374405.0,1057.5203,1046.0479,3.3320312,-1.0820312,-7.984375,-0.23364258,-0.94885254,-0.061706543,0.20300293,2374430,1059.7163,1055.7546,-3.8398438,2.421875,-8.7734375,0.28240967,0.9135742,0.010314941,0.29248047
2374425.0,1057.3247,1044.8445,3.21875,-1.0429688,-7.7890625,-0.23205566,-0.9487915,-0.061035156,0.20544434,2374450,1057.6262,1054.8303,-3.609375,3.1914062,-8.660156,0.28125,0.91278076,0.008850098,0.29595947
2374445.0,1057.6204,1045.5269,3.1054688,-0.9296875,-7.140625,-0.22998047,-0.94921875,-0.057556152,0.20697021,2374470,1057.5076,1053.3679,-2.84375,3.3828125,-8.5859375,0.27990723,0.9124756,0.010925293,0.29815674
2374465.0,1057.5061,1045.0183,3.21875,-0.1640625,-5.8789062,-0.22753906,-0.9500122,-0.054016113,0.20684814,2374490,1057.3955,1053.7549,-3.265625,2.3867188,-6.5585938,0.27770996,0.91259766,0.015563965,0.29968262
2374485.0,1056.6582,1044.23,3.1054688,-0.203125,-5.609375,-0.22546387,-0.9511719,-0.05126953,0.20458984,2374510,1056.7144,1053.7302,-3.4570312,1.3515625,-5.3710938,0.2755127,0.91290283,0.018005371,0.3007202
2374505.0,1055.758,1044.8423,3.0664062,-0.546875,-5.6132812,-0.22296143,-0.9528198,-0.04888916,0.19995117,2374530,1057.562,1054.0576,-2.9179688,1.4257812,-5.1328125,0.27294922,0.9136963,0.018554688,0.3005371
2374525.0,1056.4116,1043.582,0.84375,0.14453125,-6.4921875,-0.22003174,-0.9552002,-0.047180176,0.19232178,2374550,1056.489,1052.8062,-2.1914062,0.9296875,-4.8710938,0.27020264,0.9157715,0.016357422,0.29675293
2374545.0,1056.512,1043.8413,-0.23046875,0.7578125,-7.484375,-0.21783447,-0.95758057,-0.0435791,0.18359375,2374570,1054.5203,1051.9458,-2.3828125,0.546875,-6.7851562,0.26843262,0.9192505,0.013183594,0.2876587
2374565.0,1057.0674,1044.9939,-0.07421875,0.44921875,-8.675781,-0.21746826,-0.9591675,-0.036254883,0.17712402,2374590,1054.6199,1052.2192,-1.5390625,1.0820312,-8.2734375,0.26861572,0.9219971,0.014587402,0.27850342
2374585.0,1057.3298,1044.6538,0.765625,0.02734375,-9.480469,-0.21813965,-0.96014404,-0.029785156,0.17218018,2374610,1052.8333,1050.5042,-2.1132812,1.2734375,-8.96875,0.26983643,0.92407227,0.021240234,0.2699585
2374605.0,1056.3391,1045.498,2.109375,-0.0078125,-9.515625,-0.21899414,-0.9610596,-0.027526855,0.16619873,2374630,1053.176,1050.5881,-2.2304688,0.0859375,-8.1640625,0.27130127,0.9254761,0.026000977,0.26306152
2374625.0,1056.6536,1045.885,2.53125,0.3359375,-10.1640625,-0.21972656,-0.961853,-0.027954102,0.16064453,2374650,1054.1714,1051.2881,-3.3398438,0.1640625,-8.734375,0.2720337,0.927124,0.026062012,0.25634766
2374645.0,1056.3816,1044.8088,2.6445312,0.6796875,-10.167969,-0.22106934,-0.96209717,-0.028930664,0.15704346,2374670,1053.6655,1051.064,-3.9921875,0.73828125,-8.738281,0.2718506,0.92871094,0.023254395,0.25097656
2374670.0,1056.6323,1042.7974,3.2578125,0.2578125,-10.96875,-0.2234497,-0.961792,-0.029541016,0.15539551,2374690,1052.7947,1049.5408,-5.0273438,1.234375,-9.199219,0.27209473,0.9299927,0.019226074,0.24633789
2374685.0,1057.1204,1042.0349,4.328125,0.02734375,-11.4296875,-0.22601318,-0.96118164,-0.030334473,0.1552124,2374715,1053.7656,1049.29,-5.640625,2.1171875,-10.421875,0.27392578,0.9301758,0.01763916,0.24371338
2374705.0,1057.5217,1043.6931,5.6328125,0.3359375,-11.246094,-0.22808838,-0.96051025,-0.0335083,0.15594482,2374730,1053.7808,1049.8181,-6.1757812,1.6953125,-9.925781,0.2763672,0.92944336,0.017150879,0.24377441
2374725.0,1058.751,1041.8147,6.8945312,0.56640625,-10.902344,-0.22949219,-0.95977783,-0.038879395,0.15716553,2374750,1053.4565,1049.041,-7.3242188,1.8867188,-9.421875,0.27752686,0.92858887,0.014160156,0.24597168
2374745.0,1060.1389,1039.9861,8.046875,0.94921875,-9.59375,-0.2300415,-0.9588623,-0.045532227,0.15979004,2374770,1054.0137,1049.9175,-8.511719,2.3476562,-9.394531,0.27789307,0.92749023,0.009155273,0.24993896
2374765.0,1059.323,1039.1697,7.1640625,1.2539062,-9.214844,-0.22943115,-0.95806885,-0.0501709,0.16418457,2374790,1053.8662,1049.489,-9.0078125,3.34375,-8.46875,0.2770996,0.9265137,0.005004883,0.2545166
2374785.0,1057.6787,1037.104,5.9023438,0.94921875,-9.597656,-0.22827148,-0.95703125,-0.05255127,0.17102051,2374810,1053.3777,1046.6062,-8.511719,3.4179688,-8.6171875,0.27490234,0.9257202,0.0040283203,0.25976562
2374810.0,1055.1492,1035.2263,3.71875,0.18359375,-11.433594,-0.22686768,-0.95599365,-0.054138184,0.17785645,2374830,1052.897,1046.6033,-6.5976562,2.5390625,-8.699219,0.2720337,0.9248657,0.006225586,0.265625
2374825.0,1054.4905,1037.4741,3.296875,-0.046875,-11.8125,-0.22564697,-0.95495605,-0.059143066,0.18347168,2374850,1051.0881,1045.7095,-5.640625,1.3125,-9.199219,0.26904297,0.92407227,0.007446289,0.27142334
2374845.0,1053.117,1035.7422,2.53125,-0.23828125,-11.8125,-0.22528076,-0.9537964,-0.066711426,0.18719482,2374870,1049.9219,1044.4797,-4.6054688,0.5859375,-10.84375,0.2666626,0.92315674,0.0034179688,0.27685547
2374865.0,1050.7341,1034.4412,1.34375,-0.62109375,-12.046875,-0.22583008,-0.9523926,-0.072631836,0.19152832,2374890,1048.084,1045.4062,-3.5703125,1.5429688,-11.5703125,0.26586914,0.92193604,-0.004760742,0.28167725
2374890.0,1047.6299,1034.2639,2.53125,-0.9296875,-11.9296875,-0.22613525,-0.95098877,-0.07788086,0.19610596,2374910,1047.3562,1042.665,-2.9570312,2.1171875,-12.3359375,0.26605225,0.9203491,-0.011169434,0.286438
2374905.0,1046.4651,1035.4995,2.9882812,-0.27734375,-11.625,-0.22564697,-0.9493408,-0.08477783,0.20166016,2374930,1045.4434,1041.166,-3.8398438,2.1171875,-12.074219,0.265625,0.91851807,-0.0154418945,0.29248047
2374925.0,1045.1191,1031.2656,3.140625,0.18359375,-10.746094,-0.22509766,-0.94714355,-0.09112549,0.2097168,2374950,1045.5732,1040.8115,-4.375,2.0390625,-10.769531,0.2645874,0.9161377,-0.020141602,0.30041504
2374950.0,1044.2554,1031.2856,4.75,0.18359375,-9.746094,-0.22509766,-0.94384766,-0.09741211,0.22137451,2374970,1045.6777,1041.2834,-4.9492188,1.5039062,-10.0,0.26239014,0.91363525,-0.024047852,0.30963135
2374965.0,1042.322,1031.9065,5.0976562,0.21875,-9.253906,-0.22619629,-0.9388428,-0.10455322,0.23754883,2374990,1044.8474,1037.4368,-4.9492188,0.203125,-9.0390625,0.2609253,0.91137695,-0.026794434,0.31726074
2374985.0,1039.5161,1028.4927,4.6367188,0.52734375,-9.5546875,-0.22998047,-0.93292236,-0.11590576,0.25164795,2375010,1042.8687,1036.5237,-5.4101562,-1.2148438,-8.8515625,0.2614746,0.90960693,-0.031188965,0.32128906
2375005.0,1039.1016,1029.0259,5.25,0.44921875,-9.015625,-0.23626709,-0.9273071,-0.13238525,0.25836182,2375030,1042.2798,1037.1016,-4.6054688,-0.48828125,-7.5507812,0.2647705,0.9078369,-0.043273926,0.32226562
2375030.0,1031.7576,1027.0249,5.59375,-0.4296875,-7.984375,-0.2453003,-0.9229126,-0.14819336,0.25708008,2375050,1042.3398,1030.3159,-3.8789062,0.66015625,-7.3242188,0.26782227,0.9063721,-0.06524658,0.3201294
2375045.0,1035.3342,1026.6069,6.6679688,-0.0078125,-8.1328125,-0.25726318,-0.91845703,-0.17211914,0.24615479,2375070,1040.758,1034.2207,-0.12109375,1.65625,-7.125,0.26800537,0.91015625,-0.090148926,0.3027954
2375065.0,1034.6992,1025.7195,5.25,0.41015625,-6.5625,-0.26550293,-0.9104004,-0.21282959,0.23529053,2375090,1040.0999,1032.001,-8.703125,-1.7890625,-6.2109375,0.2619629,0.91156006,-0.11730957,0.2944336
2375090.0,1035.0237,1025.8965,4.2929688,1.4453125,-3.65625,-0.2695923,-0.901001,-0.26141357,0.21710205,2375110,1040.0212,1028.8208,-4.9882812,-2.7851562,-6.6640625,0.25390625,0.9099121,-0.16137695,0.2855835
2375105.0,1031.3196,1026.2676,4.9804688,0.14453125,-3.9257812,-0.27478027,-0.89056396,-0.30517578,0.19573975,2375130,1038.0723,1027.8074,-4.7578125,-2.9765625,-5.9414062,0.24829102,0.9064331,-0.20385742,0.27423096
2375125.0,1030.513,1026.31,1.3789062,0.02734375,-1.5078125,-0.27923584,-0.88568115,-0.31829834,0.19049072,2375150,1038.7229,1027.0603,-3.0351562,-0.44921875,-3.640625,0.24224854,0.90112305,-0.22918701,0.2770996
2375145.0,1033.7117,1025.2478,0.765625,1.3710938,-1.5898438,-0.27819824,-0.8864746,-0.31951904,0.1862793,2375170,1036.23,1025.1755,1.1796875,-2.0585938,-6.9023438,0.24743652,0.9016113,-0.22467041,0.27453613
2375165.0,1031.8853,1023.5376,3.140625,2.7851562,-5.1875,-0.27526855,-0.88934326,-0.31793213,0.1795044,2375190,1035.7764,1026.1812,-0.31640625,-0.71875,-5.0273438,0.26434326,0.90527344,-0.20196533,0.2642212
2375185.0,1031.0881,1022.6304,2.7226562,1.3710938,-5.6914062,-0.27404785,-0.89141846,-0.31860352,0.16955566,2375210,1035.2168,1026.3674,-0.7734375,-1.6757812,-6.0195312,0.28137207,0.91119385,-0.16894531,0.2489624
2375205.0,1031.0449,1021.6333,3.5625,0.91015625,-5.2695312,-0.27166748,-0.89660645,-0.3100586,0.16168213,2375235,1034.834,1027.4775,-2.0390625,-4.203125,-6.2421875,0.29718018,0.9175415,-0.13085938,0.22943115
2375230.0,1031.4609,1021.32764,2.375,3.3242188,-5.2695312,-0.27001953,-0.9033203,-0.2966919,0.1517334,2375250,1035.0447,1029.6477,-2.6132812,-5.890625,-5.9765625,0.3121338,0.9230957,-0.09954834,0.20123291
2375245.0,1031.9739,1021.5759,2.875,2.171875,-5.0351562,-0.2727661,-0.9095459,-0.28204346,0.137146,2375270,1035.0337,1030.9678,-4.6445312,-5.6992188,-6.9414062,0.32714844,0.92529297,-0.08734131,0.17077637
2375265.0,1033.3318,1021.5813,2.4921875,1.6367188,-4.9960938,-0.27868652,-0.9158325,-0.26361084,0.11871338,2375290,1035.9761,1031.3394,-4.9882812,-4.546875,-6.9414062,0.33947754,0.9239502,-0.095458984,0.14819336
2375285.0,1034.3655,1022.2229,2.1445312,1.7890625,-5.1484375,-0.28479004,-0.92230225,-0.24267578,0.09655762,2375310,1037.3752,1030.9526,-4.8359375,-2.5195312,-7.8945312,0.35028076,0.9205322,-0.10845947,0.1348877
2375305.0,1034.3201,1023.88086,3.21875,2.6328125,-7.6015625,-0.2901001,-0.9283447,-0.22045898,0.07324219,2375330,1038.3711,1030.5942,-5.7148438,-1.2148438,-8.6953125,0.35992432,0.91619873,-0.113220215,0.1350708
2375325.0,1036.4229,1025.2603,5.671875,3.09375,-9.1328125,-0.29541016,-0.9324951,-0.19921875,0.059509277,2375350,1039.9402,1030.6204,-5.9453125,-1.3671875,-8.316406,0.3692627,0.9109497,-0.113342285,0.14477539
2375345.0,1037.9792,1025.416,6.5898438,2.75,-7.9492188,-0.30065918,-0.93499756,-0.17932129,0.0569458,2375370,1040.9473,1031.0825,-7.0546875,-1.9453125,-8.660156,0.3751831,0.90618896,-0.12017822,0.15344238
2375365.0,1040.4089,1024.875,3.4492188,2.671875,-9.363281,-0.30334473,-0.9369507,-0.16241455,0.06060791,2375390,1041.9819,1030.1375,-7.9375,-1.3320312,-8.511719,0.37615967,0.90197754,-0.13702393,0.16168213
2375385.0,1042.199,1024.771,0.5390625,1.7539062,-6.9882812,-0.30371094,-0.93829346,-0.15026855,0.06896973,2375410,1042.3435,1027.2659,-6.75,-1.0234375,-7.1679688,0.3748169,0.8989868,-0.15075684,0.16925049
2375405.0,1044.8071,1024.4663,-0.19140625,-0.27734375,-6.1132812,-0.30529785,-0.9397583,-0.13098145,0.080566406,2375430,1042.1995,1026.1619,-2.7265625,-2.6328125,-6.4765625,0.37786865,0.89733887,-0.14868164,0.17297363
2375425.0,1046.0398,1023.33154,0.5,-1.2734375,-6.4960938,-0.30786133,-0.9407959,-0.106933594,0.09313965,2375450,1041.7117,1026.8298,-2.1523438,-3.78125,-6.8984375,0.3850708,0.8959961,-0.14343262,0.168396
2375445.0,1048.1086,1022.553,-0.91796875,-3.0742188,-6.9140625,-0.30859375,-0.94244385,-0.06604004,0.11065674,2375470,1041.3989,1028.0889,-1.5039062,-4.6640625,-7.546875,0.39257812,0.895874,-0.1418457,0.15228271
2375465.0,1048.9246,1020.80884,-1.2617188,-3.34375,-6.2617188,-0.30615234,-0.9437256,-0.029968262,0.121520996,2375490,1041.24,1028.8335,-1.234375,-5.5820312,-6.9414062,0.39941406,0.8963623,-0.14086914,0.13079834
2375485.0,1050.4548,1020.86084,-0.87890625,-2.8046875,-6.9140625,-0.3048706,-0.94384766,0.0078125,0.12689209,2375510,1042.1201,1030.1697,0.453125,-7.8085938,-6.171875,0.41046143,0.8951416,-0.13970947,0.10369873
2375505.0,1051.05,1023.3042,0.84375,-6.9804688,-7.1015625,-0.30651855,-0.9407959,0.056274414,0.13336182,2375530,1043.1973,1030.5122,0.71875,-7.6914062,-5.3671875,0.42370605,0.8911133,-0.14471436,0.07324219
2375530.0,1052.8164,1023.29663,-3.140625,-6.3671875,-7.75,-0.3118286,-0.93377686,0.109558105,0.137146,2375550,1045.0281,1031.5374,1.640625,-6.1953125,-5.671875,0.43572998,0.88549805,-0.15600586,0.04083252
2375545.0,1053.228,1023.54346,-3.6015625,-6.2539062,-6.984375,-0.31506348,-0.9250488,0.16265869,0.13635254,2375570,1046.3201,1031.491,3.09375,-6.6992188,-6.2851562,0.44580078,0.87805176,-0.17370605,0.007385254
2375565.0,1054.9075,1022.8203,-10.191406,-7.171875,-6.6835938,-0.3110962,-0.91656494,0.21130371,0.1359253,2375590,1049.2166,1031.2424,7.5390625,-6.6171875,-6.09375,-0.4512329,-0.86816406,0.20483398,0.027770996
2375585.0,1058.1936,1021.16113,-16.433594,2.8242188,-2.7773438,-0.31158447,-0.90026855,0.27056885,0.13867188,2375610,1051.4102,1029.6973,6.5820312,-5.3164062,-4.7539062,-0.44836426,-0.85717773,0.24597168,0.060913086
2375605.0,1059.9805,1017.7715,-18.769531,5.7382812,-1.8164062,-0.3234253,-0.8831787,0.31134033,0.13604736,2375630,1054.3716,1022.8208,10.0234375,-3.015625,-2.7617188,-0.4404297,-0.84814453,0.28045654,0.08929443
2375625.0,1062.7476,1026.3184,-20.414062,10.2578125,-5.7265625,-0.35095215,-0.8648071,0.3416748,0.11035156,2375650,1055.5535,1017.7832,15.15625,1.3515625,-1.4609375,-0.43188477,-0.84606934,0.289917,0.11663818
2375645.0,1064.7368,1033.1282,-27.082031,8.2265625,-11.1640625,-0.37384033,-0.8583374,0.34649658,0.05895996,2375670,1059.0457,1014.1638,20.828125,7.8632812,-4.7148438,-0.42279053,-0.8552246,0.26000977,0.14886475
2375665.0,1069.4126,1047.9443,-29.914062,4.9335938,-20.398438,0.39678955,0.854187,-0.33520508,0.024414062,2375690,1061.7974,1017.63916,26.5,8.285156,-10.1171875,-0.41601562,-0.87023926,0.19384766,0.17889404
2375685.0,1071.8586,1045.1289,-28.34375,2.671875,-23.460938,0.40838623,0.8517456,-0.3116455,0.10321045,2375710,1069.8162,1028.6648,26.765625,6.0234375,-11.917969,-0.40802002,-0.8814697,0.11517334,0.20819092
2375705.0,1077.9253,1054.729,-27.425781,3.9726562,-26.984375,0.4215088,0.8452759,-0.26940918,0.18792725,2375735,1072.7759,1036.3057,33.128906,15.675781,-10.8046875,-0.39007568,-0.888855,0.047668457,0.2355957
2375725.0,1080.1042,1048.364,-30.800781,2.8632812,-20.472656,0.43182373,0.83929443,-0.1975708,0.26483154,2375750,1077.3096,1047.3313,34.546875,19.277344,-19.960938,-0.37097168,-0.89263916,-0.033081055,0.25390625
2375745.0,1080.2153,1046.7244,-32.367188,1.484375,-20.589844,0.42889404,0.8300171,-0.15112305,0.32287598,2375770,1077.1318,1050.1846,29.222656,14.527344,-27.699219,-0.3527832,-0.8885498,-0.12585449,0.2649536
2375765.0,1078.0991,1040.1877,-24.707031,4.9335938,-25.074219,0.4222412,0.81970215,-0.12884521,0.3649292,2375790,1077.0603,1047.3564,27.074219,10.3515625,-29.648438,-0.33544922,-0.8765869,-0.20263672,0.27941895
2375785.0,1079.2124,1049.4678,-20.261719,4.4335938,-27.828125,0.41278076,0.8040161,-0.11517334,0.41223145,2375815,1075.9216,1040.7773,18.074219,8.550781,-23.488281,-0.31762695,-0.86291504,-0.25585938,0.29833984
2375805.0,1084.1565,1031.8916,5.0195312,-12.3828125,-7.8710938,0.3880005,0.7914429,-0.09399414,0.4628296,2375830,1079.4697,1038.4392,11.3671875,3.4179688,-17.472656,-0.30670166,-0.83984375,-0.31103516,0.32226562
2375825.0,1090.2131,1017.33594,5.59375,-15.7890625,11.4375,0.3550415,0.7857666,-0.06060791,0.50286865,2375850,1080.3022,1032.8169,0.52734375,-12.6328125,-9.160156,-0.31433105,-0.8051758,-0.3713379,0.33911133
2375845.0,1084.9297,1001.86646,5.8632812,-32.339844,7.875,0.3244629,0.7785034,-0.05847168,0.5340576,2375870,1079.7432,1005.8799,1.8671875,-29.183594,0.109375,-0.328125,-0.76971436,-0.40527344,0.36828613
2375865.0,1075.125,1010.16284,-19.917969,-32.835938,-18.289062,0.319458,0.7699585,-0.13555908,0.53552246,2375890,1077.74,1012.9624,15.734375,-36.91797,-13.027344,-0.3373413,-0.7529907,-0.37384033,0.42364502
2375890.0,1071.7717,1026.7214,-35.734375,-11.1953125,-23.996094,0.34606934,0.7519531,-0.22436523,0.5142822,2375910,1071.6233,1028.5244,26.503906,-22.707031,-26.128906,-0.33874512,-0.75756836,-0.27923584,0.48309326
2375900.0,1069.5315,1025.5461,-27.660156,4.7421875,-21.394531,0.36419678,0.72613525,-0.28546143,0.5084839,2375930,1061.3945,1032.6951,36.535156,-2.4804688,-23.601562,-0.34521484,-0.7531738,-0.21569824,0.51672363
2375925.0,1062.7971,1025.7468,-32.367188,16.617188,-12.6953125,0.30773926,0.7044678,-0.26062012,0.5840454,2375950,1060.1279,1048.2256,42.128906,2.8828125,-24.558594,-0.36999512,-0.71746826,-0.22338867,0.54626465
2375940.0,1061.5706,1018.0759,-28.570312,-8.933594,-20.664062,0.21063232,0.6810303,-0.20715332,0.67004395,2375975,1053.9441,1031.919,33.664062,0.77734375,-15.058594,-0.39434814,-0.6638794,-0.26641846,0.57684326
2375965.0,1050.406,1035.2124,-36.351562,-24.910156,-22.234375,0.083862305,0.6619873,-0.16119385,0.72717285,2375990,1042.0461,1030.1633,33.851562,-11.941406,-23.601562,-0.44317627,-0.58288574,-0.31530762,0.6036377
2375980.0,1018.5071,1037.0569,-27.082031,-2.9960938,-32.0,-0.094177246,0.6109009,-0.16210938,0.7692261,2376010,1017.2998,1036.1292,22.210938,-3.2460938,-34.86328,-0.4852295,-0.47631836,-0.34118652,0.64904785
2376005.0,976.65186,1034.6465,-42.632812,5.9296875,-5.6875,-0.3314209,0.50720215,-0.15722656,0.7798462,2376030,1002.7185,1037.7214,31.480469,7.5195312,-36.046875,-0.5202637,-0.3491211,-0.35687256,0.6928711
2376020.0,975.8755,1028.3489,-31.832031,9.527344,-29.859375,-0.45947266,0.45513916,-0.16766357,0.74401855,2376055,1011.1919,1018.19556,24.355469,18.128906,-34.367188,-0.53015137,-0.2288208,-0.35003662,0.7375488
2376040.0,1003.5498,1009.1719,-34.628906,6.6953125,-48.546875,-0.5153198,0.390625,-0.21820068,0.730896,2376070,1008.72754,1019.5637,34.546875,7.9765625,-58.308594,-0.4963379,-0.10992432,-0.32769775,0.7963257
2376060.0,1008.73535,1008.0486,-31.792969,13.7421875,-43.453125,-0.47802734,0.30145264,-0.29821777,0.7692261,2376090,1008.8164,1012.9846,38.183594,13.800781,-38.660156,-0.45843506,0.0368042,-0.29608154,0.8371582
2376080.0,1009.3059,1008.79224,-48.265625,3.2460938,-19.667969,-0.49493408,0.21435547,-0.3937378,0.74438477,2376110,1008.6028,1011.8723,31.785156,-4.546875,-34.63672,-0.46710205,0.1895752,-0.21435547,0.8366089
2376100.0,1009.927,1009.0449,-37.92578,0.44921875,-14.917969,-0.5234375,0.16009521,-0.48687744,0.6807251,2376135,1009.17456,1010.8594,14.207031,3.8007812,-4.6757812,-0.5105591,0.24816895,-0.123168945,0.81396484
2376120.0,1009.4116,1008.57324,-43.625,2.6328125,-10.589844,-0.5153198,0.16009521,-0.57543945,0.614563,2376150,1009.0725,1010.6138,27.074219,6.7890625,-2.6835938,-0.57714844,0.21264648,-0.028930664,0.78796387
2376145.0,1010.1853,1008.1028,-50.335938,7.0,-7.8710938,-0.49401855,0.20269775,-0.6489258,0.54193115,2376170,1008.6138,1011.11914,42.66797,1.8476562,-11.3828125,-0.65667725,0.13757324,0.05895996,0.7391968
2376160.0,1010.1631,1008.595,-51.63672,-2.9960938,-1.9335938,-0.4749756,0.29882812,-0.69177246,0.45446777,2376190,1008.6323,1010.9426,58.179688,-7.1914062,-21.265625,-0.73883057,0.074279785,0.11785889,0.65930176
2376180.0,1009.9043,1008.38696,-59.179688,-17.363281,-0.9765625,-0.47705078,0.45043945,-0.6721802,0.34301758,2376210,1008.68115,1011.0017,53.695312,-16.84375,-9.6953125,-0.80682373,-0.0075683594,0.1607666,0.5684204
2376200.0,1009.71313,1008.6675,-64.16797,-26.59375,-4.6914062,-0.4897461,0.6066284,-0.5873413,0.21722412,2376230,1008.5154,1010.64746,61.820312,-18.722656,-11.800781,-0.85284424,-0.11450195,0.19238281,0.47174072
2376220.0,1009.84595,1008.80566,-62.70703,-38.890625,-1.0898438,-0.4678955,0.7305298,-0.4827881,0.119506836,2376250,1008.5818,1010.68945,68.78906,-22.015625,-15.058594,-0.8856201,-0.22418213,0.20306396,0.352417
2376240.0,1009.81274,1009.0332,-61.59375,-35.789062,-0.40234375,-0.40740967,0.82922363,-0.37817383,0.05847168,2376270,1008.7798,1010.8645,70.94141,-28.375,-9.65625,-0.89367676,-0.32855225,0.19329834,0.23669434
2376260.0,1009.94214,1009.0967,-57.0,-36.36328,2.3203125,-0.3287964,0.90319824,-0.27508545,0.020874023,2376290,1009.0747,1011.06885,68.140625,-30.484375,1.9882812,-0.87506104,-0.4274292,0.17028809,0.15014648
2376285.0,1009.9021,1009.2283,-47.691406,-34.027344,3.0078125,-0.24645996,0.94903564,-0.19641113,0.005065918,2376310,1009.22363,1011.2949,63.117188,-31.476562,6.5078125,-0.84020996,-0.5170288,0.13366699,0.094055176
2376300.0,1009.95654,1009.21606,-44.929688,-32.53125,0.05859375,-0.16064453,0.97595215,-0.1473999,6.1035156e-05,2376330,1009.4431,1012.34424,55.003906,-32.78125,10.761719,-0.7918091,-0.5997925,0.095581055,0.064331055
2376320.0,1009.97095,1009.4612,-37.38672,-32.914062,-0.66796875,0.0703125,-0.98846436,0.13366699,0.012207031,2376350,1009.50903,1011.7278,49.867188,-33.277344,11.910156,-0.7363281,-0.6727905,0.052368164,0.04901123
2376340.0,1010.0349,1009.6936,-32.214844,-36.941406,0.86328125,-0.023254395,-0.991272,0.122802734,0.04248047,2376370,1009.5437,1011.9656,25.886719,-48.984375,9.535156,-0.68237305,-0.7295532,-0.0025634766,0.045532227
2376360.0,1010.0366,1009.9131,-19.382812,-37.746094,5.0390625,-0.09869385,-0.98846436,0.091552734,0.06921387,2376390,1009.469,1012.07666,16.886719,-53.851562,0.265625,-0.6380615,-0.76641846,-0.044006348,0.059753418
2376380.0,1010.0779,1010.1848,-11.988281,-47.32422,4.0429688,-0.15759277,-0.98187256,0.061767578,0.08544922,2376410,1009.41626,1012.0242,6.1601562,-53.3125,-8.0859375,-0.6063843,-0.78967285,-0.04058838,0.08392334
2376400.0,1010.0051,1010.3467,-7.1992188,-52.11328,0.7109375,-0.21173096,-0.97003174,0.064208984,0.10015869,2376430,1009.48535,1011.8662,-7.4765625,-51.82422,-8.546875,-0.58374023,-0.8063965,0.024963379,0.091308594
2376425.0,1010.0132,1010.479,12.640625,-49.54297,-0.59375,-0.24725342,-0.96118164,0.06329346,0.1048584,2376450,1009.6167,1012.041,-8.972656,-43.890625,-7.0507812,-0.56140137,-0.8151245,0.11816406,0.080566406
2376440.0,1010.21533,1010.37134,10.613281,-51.652344,2.3945312,-0.2668457,-0.95428467,0.062072754,0.1194458,2376470,1009.8091,1011.96826,-16.289062,-41.78125,0.83984375,-0.54522705,-0.81677246,0.17907715,0.059631348
2376460.0,1027.0625,1010.4131,8.6953125,-44.976562,1.8203125,-0.2748413,-0.9484253,0.07714844,0.13781738,2376490,1021.4463,1011.9221,-17.628906,-47.45703,-0.00390625,-0.5404663,-0.8170166,0.19781494,0.034973145
2376480.0,1039.0413,1009.7832,13.484375,-34.5625,4.3125,-0.26678467,-0.9465332,0.0847168,0.16027832,2376515,1022.17773,1011.12134,-9.777344,-27.339844,0.37890625,-0.54455566,-0.8097534,0.21838379,0.008911133
2376500.0,1037.9353,1007.39795,2.875,-15.871094,1.015625,-0.25854492,-0.93811035,0.10876465,0.203125,2376530,1038.6089,1011.72437,-4.4140625,-15.847656,-2.53125,0.54785156,0.79437256,-0.2612915,0.023254395
2376520.0,1038.637,1008.9595,-0.83984375,-10.4296875,0.48046875,-0.25268555,-0.92596436,0.14440918,0.24060059,2376550,1032.0776,1009.9282,0.8359375,-11.214844,-6.8242188,0.5411377,0.7746582,-0.322937,0.05279541
2376540.0,1037.9287,1008.76416,-2.9882812,-4.8789062,-1.0507812,-0.24407959,-0.91851807,0.17248535,0.2588501,2376570,1030.9248,1010.4265,3.09375,-10.2890625,-5.1367188,0.52856445,0.75561523,-0.3798828,0.07324219
2376565.0,1036.0154,1008.62866,0.84375,-0.27734375,-8.0234375,-0.23620605,-0.9188843,0.18310547,0.25756836,2376595,1031.7722,1011.00586,0.8359375,-3.7460938,-3.4140625,0.51763916,0.74468994,-0.41229248,0.08630371
2376580.0,1036.0142,1009.0864,0.95703125,1.40625,-8.0625,-0.23492432,-0.9219971,0.18499756,0.24591064,2376610,1033.2878,1011.31055,-0.31640625,-4.203125,-5.4804688,0.5126953,0.74420166,-0.41644287,0.09967041
2376600.0,1036.1431,1009.32886,-0.7265625,2.1367188,-9.7109375,-0.24084473,-0.92681885,0.17883301,0.22583008,2376630,1033.4006,1010.2676,-1.7304688,-4.703125,-5.5195312,0.51519775,0.7476196,-0.40509033,0.10760498
2376620.0,1036.584,1009.41626,-0.61328125,-0.0859375,-9.746094,-0.24749756,-0.9333496,0.16894531,0.19769287,2376650,1032.4583,1010.6941,-2.3828125,-5.8125,-7.4335938,0.52111816,0.74749756,-0.39788818,0.10656738
2376640.0,1036.9829,1009.6245,1.4179688,-1.8867188,-10.546875,-0.25805664,-0.93774414,0.16296387,0.16583252,2376675,1032.489,1011.0383,-4.1054688,-5.6992188,-6.1757812,0.5253906,0.7418213,-0.40649414,0.092041016
2376660.0,1038.2661,1015.39136,-0.6484375,-3.265625,-10.703125,-0.27044678,-0.93963623,0.16174316,0.13342285,2376690,1032.5581,1011.13574,-4.7578125,-5.125,-5.6757812,0.5241089,0.7371216,-0.42156982,0.06530762
2376680.0,1046.4031,1020.9846,-0.765625,-4.6835938,-7.75,-0.28051758,-0.9387207,0.17053223,0.105163574,2376710,1034.5381,1013.2654,-4.375,-5.9257812,-6.171875,0.52130127,0.7384033,-0.42633057,0.03515625
2376705.0,1056.0574,1024.3267,-0.87890625,-2.15625,-1.4726562,-0.28814697,-0.9336548,0.19604492,0.08276367,2376730,1035.8855,1014.1987,-3.8007812,-6.7304688,-5.9023438,0.5266113,0.74401855,-0.41119385,0.00390625
2376720.0,1066.0217,1019.7942,-6.8554688,0.56640625,6.1132812,-0.3062744,-0.9241333,0.21447754,0.07897949,2376755,1048.9873,1026.7036,-0.12109375,-7.4257812,4.8242188,-0.5340576,-0.75598145,0.3782959,0.013671875
2376740.0,1065.3494,1022.9868,-12.105469,3.6679688,2.5507812,-0.33068848,-0.916626,0.21435547,0.06665039,2376770,1055.6653,1019.84644,6.8867188,-8.339844,-0.9609375,-0.53479004,-0.7640381,0.36016846,0.022277832
2376760.0,1069.2429,1030.561,-12.527344,2.5585938,-4.6523438,-0.35162354,-0.9111328,0.21173096,0.037902832,2376790,1049.5691,1017.5293,11.753906,-0.56640625,-2.2265625,-0.52801514,-0.7689209,0.35595703,0.057373047
2376780.0,1071.8833,1036.238,-18.921875,6.65625,-9.824219,-0.3635254,-0.90771484,0.20953369,0.0025024414,2376810,1052.0068,1026.7368,17.886719,5.0664062,-7.8554688,-0.5186157,-0.7819214,0.33447266,0.08807373
2376800.0,1073.4592,1040.617,-19.421875,13.933594,-11.394531,0.37231445,0.9046631,-0.20184326,0.047058105,2376835,1058.7239,1035.6194,22.402344,7.4414062,-12.4921875,-0.505249,-0.8046875,0.27960205,0.13800049
2376820.0,1079.3228,1042.0791,-26.621094,11.40625,-13.082031,0.38641357,0.8961792,-0.19128418,0.10449219,2376850,1061.3594,1038.9707,24.273438,5.5273438,-16.667969,-0.4951172,-0.8222656,0.22686768,0.1651001
2376845.0,1085.2917,1049.314,-36.35547,7.8046875,-14.8046875,0.40826416,0.88153076,-0.17462158,0.16027832,2376870,1069.1184,1041.4402,26.15625,-0.44921875,-13.832031,-0.47509766,-0.8410034,0.15472412,0.20758057
2376860.0,1088.5813,1056.3254,-32.828125,9.796875,-17.714844,0.42248535,0.8635254,-0.15759277,0.22589111,2376890,1073.3965,1043.7344,28.644531,0.62109375,-10.421875,-0.4430542,-0.85583496,0.095581055,0.24920654
2376880.0,1091.9849,1051.0352,-38.726562,13.015625,-18.367188,0.4364624,0.83917236,-0.12591553,0.2991333,2376910,1083.6389,1036.1304,31.4375,1.5039062,-14.175781,-0.41308594,-0.8677368,0.018188477,0.2756958
2376900.0,1095.0359,1051.6653,-32.066406,3.2851562,-23.15625,0.43762207,0.81256104,-0.09307861,0.37365723,2376930,1086.1665,1038.1777,30.367188,2.421875,-16.09375,-0.38757324,-0.8690796,-0.06982422,0.29943848
2376920.0,1094.9365,1049.8125,-29.230469,6.7695312,-21.699219,0.4277954,0.78015137,-0.07788086,0.44976807,2376950,1085.438,1051.6064,31.4375,4.2226562,-21.300781,-0.36517334,-0.8604126,-0.14282227,0.3255005
2376940.0,1090.5938,1044.094,-21.527344,12.671875,-25.679688,0.4154663,0.75,-0.05328369,0.51190186,2376970,1083.3516,1052.259,30.027344,8.707031,-22.375,-0.3480835,-0.8477173,-0.18945312,0.35253906
2376960.0,1087.8618,1037.092,-23.59375,1.2929688,-22.464844,0.40063477,0.7269287,-0.024536133,0.557251,2376990,1080.2007,1041.3125,22.09375,7.328125,-22.796875,-0.3355713,-0.83343506,-0.22479248,0.37719727
2376985.0,1088.231,1041.0884,3.4492188,-17.476562,-6.4140625,0.37695312,0.7043457,-0.026367188,0.6008911,2377010,1080.5723,1035.4785,6.3125,-6.8476562,-17.203125,-0.33312988,-0.8110962,-0.2635498,0.4020996
2377000.0,1088.3765,1035.9346,4.9804688,-32.03125,1.3242188,0.34979248,0.6925049,-0.028625488,0.630249,2377030,1083.897,1029.1309,0.64453125,-16.582031,-6.0546875,-0.34301758,-0.7774048,-0.30871582,0.4274292
2377020.0,1088.105,1029.5942,-5.8203125,-33.875,1.2460938,0.32855225,0.6923218,-0.06365967,0.6392822,2377050,1083.6079,1027.0388,2.671875,-29.101562,-2.7226562,-0.36328125,-0.7418823,-0.3284912,0.45794678
2377040.0,1085.0642,1038.4707,-17.660156,-27.476562,-5.5703125,0.3369751,0.70306396,-0.13909912,0.6105957,2377070,1077.7817,1021.42456,20.640625,-29.984375,-10.078125,-0.3861084,-0.72283936,-0.2894287,0.49468994
2377060.0,1081.6763,1031.5684,-30.339844,-0.77734375,-12.4296875,0.3581543,0.69104004,-0.21923828,0.5883179,2377090,1073.8044,1029.2175,30.40625,-17.304688,-17.96875,-0.39904785,-0.7104492,-0.22662354,0.53356934
2377080.0,1077.6687,1025.418,-32.59375,-0.5859375,-17.714844,0.35662842,0.6729126,-0.26385498,0.59191895,2377110,1065.4426,1047.8594,29.261719,-15.042969,-21.265625,-0.41882324,-0.6843872,-0.18292236,0.5680542
2377100.0,1070.0137,1018.5176,-31.75,0.6015625,-19.476562,0.31262207,0.64697266,-0.28155518,0.6359863,2377130,1064.2288,1047.4609,32.9375,-8.1484375,-19.117188,-0.44140625,-0.64746094,-0.1741333,0.5963135
2377125.0,1067.6853,1019.29736,-37.960938,-4.3007812,-21.8125,0.24121094,0.633667,-0.25628662,0.68896484,2377150,1053.7327,1031.772,28.953125,-8.953125,-14.3671875,-0.46124268,-0.58709717,-0.203125,0.6334839
2377140.0,1050.5332,1030.7026,-18.269531,-21.230469,-24.265625,0.13366699,0.61535645,-0.23791504,0.73950195,2377170,1046.8252,1031.6038,23.398438,-15.0078125,-25.9375,-0.47253418,-0.5328369,-0.22399902,0.6652832
2377160.0,1029.4907,1032.688,-29.609375,6.6171875,-25.300781,0.017578125,0.59802246,-0.22473145,0.769104,2377190,1024.689,1047.2029,28.683594,-5.5820312,-28.925781,-0.4812622,-0.4720459,-0.2265625,0.7030029
2377180.0,1020.7224,1035.6438,-27.121094,11.328125,-13.1953125,-0.14300537,0.55944824,-0.20690918,0.7897949,2377210,1013.30225,1043.8076,25.734375,-0.296875,-29.578125,-0.48065186,-0.3859253,-0.22918701,0.75335693
2377200.0,997.50073,1031.0659,-32.410156,1.4453125,-8.0234375,-0.2946167,0.50891113,-0.19763184,0.78430176,2377230,1004.3115,1030.4575,23.472656,11.730469,-46.125,-0.47564697,-0.28399658,-0.25708008,0.7918701
2377220.0,991.5613,1020.8181,-18.730469,8.6484375,-23.992188,-0.3805542,0.46038818,-0.21099854,0.7737427,2377250,1007.88086,1023.5537,7.0039062,0.046875,-41.183594,-0.48187256,-0.16333008,-0.2852173,0.81225586
2377240.0,997.01074,1014.4375,-21.335938,8.5703125,-32.76953,-0.44622803,0.39746094,-0.23461914,0.76672363,2377270,1008.5928,1014.7727,20.871094,-6.65625,-40.61328,-0.49194336,-0.023132324,-0.29986572,0.8170166
2377260.0,1006.9983,1007.5359,-24.515625,9.4140625,-41.421875,-0.51464844,0.29956055,-0.26507568,0.7583618,2377290,1008.6389,1011.4707,28.03125,1.234375,-33.289062,-0.52038574,0.15240479,-0.29418945,0.78704834
2377280.0,1009.34033,1008.968,-32.33203,-8.515625,-15.9140625,-0.5778198,0.23120117,-0.31610107,0.71606445,2377310,1009.35596,1011.2483,5.4296875,-7.0390625,-7.1679688,-0.56536865,0.2802124,-0.24053955,0.7375488
2377300.0,1009.7063,1009.61743,-31.484375,2.7109375,-13.042969,-0.625,0.18444824,-0.3727417,0.66064453,2377330,1009.32227,1011.1167,10.410156,-0.56640625,1.5664062,-0.609375,0.29187012,-0.171875,0.7168579
2377320.0,1009.59375,1008.5193,-34.097656,-1.5039062,-10.628906,-0.62268066,0.18457031,-0.444458,0.6170044,2377350,1009.0498,1010.9868,27.386719,-1.40625,-2.9140625,-0.6489258,0.23797607,-0.09790039,0.7160034
2377340.0,1010.18604,1008.67993,-41.67578,-2.3476562,-11.316406,-0.5828247,0.21160889,-0.53167725,0.57696533,2377370,1008.947,1010.84546,39.328125,-4.2421875,-13.371094,-0.68621826,0.16687012,-0.022827148,0.7076416
2377360.0,1010.19116,1008.4304,-47.992188,-1.5039062,-4.0390625,-0.5293579,0.2854004,-0.60650635,0.52008057,2377390,1009.25854,1010.876,44.847656,-12.59375,-14.332031,-0.73095703,0.09051514,0.06060791,0.67370605
2377380.0,1009.9719,1008.406,-56.42578,-5.8710938,2.8554688,-0.50842285,0.4220581,-0.62475586,0.4159546,2377410,1008.7654,1011.0305,51.17578,-18.644531,-11.3046875,-0.78045654,0.0052490234,0.14428711,0.60827637
2377400.0,1009.80786,1008.5742,-62.32422,-17.324219,1.7070312,-0.50805664,0.5742798,-0.57128906,0.29278564,2377430,1008.4602,1011.0261,59.023438,-25.65625,-12.378906,-0.8279419,-0.090270996,0.21258545,0.51104736
2377420.0,1009.8696,1008.65796,-64.93359,-36.859375,1.5898438,-0.49102783,0.70184326,-0.47766113,0.19519043,2377455,1008.4912,1011.0869,67.75781,-29.945312,-11.2265625,-0.8668213,-0.18164062,0.24291992,0.395813
2377440.0,1010.05566,1008.84326,-61.941406,-35.941406,7.2617188,-0.4411621,0.8104248,-0.36462402,0.12487793,2377470,1008.6196,1010.9319,66.23047,-29.984375,-6.6328125,-0.8852539,-0.27270508,0.24102783,0.28961182
2377460.0,1010.0244,1008.86816,-57.570312,-33.835938,8.6796875,-0.3690796,0.888916,-0.25732422,0.085998535,2377490,1008.70386,1010.9641,64.04297,-28.03125,-4.0273438,-0.88171387,-0.36328125,0.22137451,0.20397949
2377480.0,1010.0054,1009.667,-46.734375,-28.777344,6.8007812,-0.28570557,0.9412842,-0.16674805,0.06750488,2377510,1008.93774,1011.2234,61.128906,-28.71875,2.140625,-0.8600464,-0.4550171,0.19006348,0.13104248
2377500.0,1010.02246,1009.01807,-45.007812,-26.210938,5.6914062,-0.19104004,0.97576904,-0.09320068,0.051330566,2377535,1009.28735,1011.1848,53.273438,-31.441406,14.707031,-0.82440186,-0.5383301,0.15679932,0.07751465
2377520.0,1010.0283,1009.33105,-46.23828,-31.269531,4.1953125,-0.09887695,0.9939575,-0.03491211,0.032348633,2377550,1009.39014,1011.8125,49.48828,-37.070312,17.464844,-0.77697754,-0.6157837,0.12219238,0.04724121
2377540.0,1009.9734,1009.66504,-39.683594,-38.35547,5.1914062,-0.01751709,0.9996948,-0.0056152344,0.015136719,2377570,1009.645,1011.5034,37.304688,-45.304688,19.496094,-0.7281494,-0.680542,0.072265625,0.038024902
2377560.0,1009.93994,1010.5051,-14.59375,-46.820312,1.515625,-0.059570312,-0.9981079,0.015258789,0.005126953,2377590,1010.1738,1012.05786,20.601562,-52.05078,14.207031,-0.6884155,-0.72320557,0.024353027,0.049682617
2377580.0,1009.8611,1010.28735,-4.0976562,-45.98047,-1.1289062,-0.12524414,-0.99102783,0.03186035,0.033996582,2377615,1009.7954,1012.17505,-7.7460938,-58.871094,-3.296875,-0.6565552,-0.7501221,0.03253174,0.07196045
2377600.0,1009.83887,1010.3623,1.7617188,-49.921875,-3.1953125,-0.16833496,-0.98272705,0.040039062,0.06585693,2377630,1009.89185,1012.0032,-15.1015625,-50.48047,-10.078125,-0.628479,-0.7687378,0.08319092,0.08453369
2377620.0,1010.06177,1010.3428,6.8945312,-40.617188,4.5039062,-0.20349121,-0.9727783,0.045410156,0.101135254,2377650,1010.1384,1011.87085,-19.660156,-43.46875,-8.316406,-0.6154175,-0.77459717,0.12957764,0.0670166
2377640.0,1010.15186,1010.33374,10.265625,-38.929688,8.140625,-0.22698975,-0.96569824,0.02947998,0.12286377,2377670,1010.2976,1011.7742,-26.058594,-43.58203,2.6015625,-0.5977783,-0.7793579,0.18481445,0.032592773
2377660.0,1010.6113,1010.29736,10.421875,-49.19922,12.1640625,-0.23724365,-0.9614258,0.022705078,0.1373291,2377695,1010.2368,1011.78564,-17.972656,-35.765625,6.46875,0.5848999,0.7793579,-0.2244873,0.0072631836
2377680.0,1038.1135,1010.4177,1.8398438,-35.63672,-12.582031,-0.23583984,-0.9610596,0.008605957,0.14367676,2377710,1024.9568,1014.4463,-6.75,-32.585938,4.6328125,0.58306885,0.77404785,-0.24310303,0.042236328
2377700.0,1035.0767,1008.0989,4.328125,-18.585938,-5.34375,-0.22998047,-0.95306396,0.006713867,0.19677734,2377730,1033.0261,1011.75854,-3.3007812,-17.535156,6.3554688,0.581604,0.7658081,-0.26568604,0.068603516
2377720.0,1035.8853,1008.67236,-0.87890625,-13.535156,-1.2421875,-0.22918701,-0.94189453,0.024719238,0.24432373,2377750,1032.949,1011.04834,-3.609375,-19.027344,-4.7929688,0.57751465,0.75323486,-0.3022461,0.088012695
2377740.0,1037.0933,1008.3894,-0.23046875,-10.046875,-2.3164062,-0.22583008,-0.9324951,0.044311523,0.27844238,2377775,1031.9197,1010.49316,-3.3789062,-10.449219,-4.0625,0.56884766,0.73669434,-0.34783936,0.1126709
2377760.0,1036.2783,1006.10156,1.8789062,-2.0390625,-6.3398438,-0.22143555,-0.92785645,0.052856445,0.29534912,2377790,1033.0608,1011.46045,-0.31640625,-8.230469,-2.3398438,0.56433105,0.7272339,-0.36895752,0.12860107
2377780.0,1036.4929,1008.6631,3.140625,-1.1210938,-8.066406,-0.21820068,-0.9272461,0.05255127,0.29974365,2377810,1032.4792,1010.7866,-1.2734375,-4.7070312,-4.1796875,0.5601196,0.717041,-0.3902588,0.14068604
2377800.0,1036.6392,1006.7991,3.9101562,-0.203125,-6.8789062,-0.21765137,-0.9286499,0.051513672,0.29595947,2377830,1031.9143,1010.8325,-0.390625,-2.8242188,-5.515625,0.5563965,0.7086792,-0.409729,0.14245605
2377820.0,1036.1174,1008.3511,2.5664062,0.56640625,-7.640625,-0.21990967,-0.9312744,0.05407715,0.28546143,2377855,1030.9021,1010.79297,-0.96484375,-1.5234375,-7.4335938,0.5574341,0.70129395,-0.42315674,0.13549805
2377840.0,1036.0278,1008.2329,2.3398438,3.3242188,-9.058594,-0.22644043,-0.9335327,0.06286621,0.27075195,2377870,1030.928,1010.99854,-1.578125,-1.2148438,-7.625,0.5599365,0.7001953,-0.42462158,0.12609863
2377860.0,1037.6536,1009.4678,0.69140625,2.5195312,-9.2109375,-0.23815918,-0.93530273,0.07385254,0.25109863,2377890,1031.9817,1011.10767,-1.921875,-1.6757812,-8.2734375,0.56292725,0.70410156,-0.41882324,0.10925293
2377880.0,1038.7896,1010.24365,1.3046875,1.2539062,-8.636719,-0.25134277,-0.9378052,0.08862305,0.22241211,2377910,1032.6973,1011.38086,-3.2265625,-3.78125,-7.5078125,0.5675049,0.71362305,-0.4019165,0.08465576
2377900.0,1058.7673,1023.4407,-1.2617188,-2.3085938,-5.8789062,-0.26489258,-0.9388428,0.1038208,0.1940918,2377935,1033.1821,1012.0149,-3.109375,-6.5390625,-9.65625,0.5791626,0.7249756,-0.3694458,0.049926758
2377920.0,1056.1455,1020.25806,-9.6875,2.5585938,7.453125,-0.28063965,-0.93573,0.11883545,0.1774292,2377950,1037.9402,1034.5173,-3.5703125,-5.6601562,-7.203125,0.5866699,0.7335205,-0.34197998,0.028930664
2377940.0,1059.2854,1020.59937,-10.4140625,1.2539062,-0.32421875,-0.29968262,-0.93084717,0.13061523,0.16333008,2377970,1048.6182,1022.36743,2.5976562,-3.2070312,3.4101562,0.5844116,0.74560547,-0.31958008,0.01776123
2377960.0,1063.7637,1022.10596,-13.714844,5.6210938,-6.4140625,-0.324646,-0.92437744,0.14355469,0.13964844,2377990,1049.4395,1022.40015,8.878906,-4.4335938,-0.9609375,-0.57244873,-0.75531006,0.31903076,0.0045776367
2377980.0,1065.5576,1031.6929,-18.308594,5.890625,-12.4296875,-0.34887695,-0.92071533,0.14282227,0.10076904,2378015,1053.0076,1023.1802,18.796875,7.7109375,-10.0,-0.55303955,-0.7738037,0.30560303,0.045043945
2378000.0,1067.9998,1033.2307,-21.414062,7.34375,-15.6484375,-0.37384033,-0.9135132,0.15319824,0.04840088,2378030,1054.1108,1024.5449,21.097656,5.375,-15.058594,-0.5391846,-0.7959595,0.26531982,0.0725708
2378020.0,1070.0813,1036.6555,-22.101562,7.9570312,-16.03125,0.4029541,0.90075684,-0.16143799,0.013793945,2378050,1060.7773,1035.6016,22.742188,0.046875,-18.660156,-0.52038574,-0.8206177,0.20672607,0.11413574
2378040.0,1078.1721,1043.898,-26.96875,7.4609375,-14.917969,0.42633057,0.88726807,-0.15454102,0.083984375,2378070,1065.0815,1038.366,24.65625,-0.296875,-14.214844,-0.49194336,-0.8413086,0.15203857,0.16473389
2378060.0,1082.7241,1048.7566,-27.847656,6.3125,-16.988281,0.44940186,0.8664551,-0.1362915,0.16955566,2378090,1074.6667,1037.2874,29.601562,1.0820312,-10.386719,-0.4550171,-0.8618164,0.08276367,0.20837402
2378080.0,1088.5574,1049.9116,-29.535156,1.0625,-19.019531,0.4590454,0.8444824,-0.10430908,0.25543213,2378110,1079.0999,1034.5981,30.832031,1.390625,-11.839844,-0.4165039,-0.87615967,-0.002319336,0.24273682
2378100.0,1090.6392,1050.4841,-35.628906,9.4921875,-17.867188,0.4593506,0.8187866,-0.06427002,0.3383789,2378130,1084.3135,1033.8074,32.398438,2.2304688,-16.132812,-0.37921143,-0.87994385,-0.094055176,0.2703247
2378120.0,1088.9333,1048.6799,-32.976562,13.3984375,-22.390625,0.45507812,0.78845215,-0.032348633,0.4124756,2378150,1085.4983,1046.8611,32.941406,5.0273438,-20.726562,-0.348938,-0.8704834,-0.1864624,0.29278564
2378140.0,1087.9492,1046.1782,-28.265625,14.9296875,-23.691406,0.4489746,0.75823975,-0.015686035,0.47247314,2378170,1082.9404,1049.0911,29.828125,6.484375,-22.375,-0.32684326,-0.8516846,-0.26220703,0.3147583
2378160.0,1084.0557,1050.4207,-20.300781,9.4921875,-23.964844,0.43328857,0.7359619,0.0036621094,0.5202637,2378190,1080.9319,1045.3066,21.9375,6.1015625,-19.3125,-0.31243896,-0.8328247,-0.31054688,0.3352661
2378185.0,1085.3113,1025.897,-1.7617188,-9.546875,-10.902344,0.41448975,0.71868896,0.022705078,0.55773926,2378210,1077.5623,1031.3872,18.378906,-0.1796875,-15.902344,-0.30889893,-0.8143921,-0.33947754,0.35516357
2378200.0,1085.2427,1032.8345,1.3789062,-29.394531,-0.015625,0.37854004,0.7079468,0.03173828,0.59539795,2378230,1078.8201,1034.8184,8.035156,-9.183594,-12.722656,-0.31799316,-0.79248047,-0.35412598,0.3814087
2378220.0,1083.9165,1022.8755,3.4101562,-40.195312,-1.5117188,0.34381104,0.71173096,0.00079345703,0.6125488,2378250,1077.4841,1018.4558,3.59375,-31.707031,-2.8398438,-0.33337402,-0.7699585,-0.35766602,0.41003418
2378240.0,1081.1609,1031.3174,-12.5625,-36.703125,-4.9960938,0.33587646,0.7340088,-0.075683594,0.5853882,2378270,1076.2927,1018.57227,13.285156,-31.019531,-8.316406,-0.3491211,-0.75787354,-0.3203125,0.44854736
2378260.0,1080.8928,1030.9924,-39.835938,-1.1601562,-7.5273438,0.34851074,0.7364502,-0.15844727,0.55773926,2378290,1071.1128,1024.6648,25.699219,-20.253906,-12.953125,-0.362854,-0.7514038,-0.2567749,0.48760986
2378280.0,1078.157,1026.425,-32.671875,-1.1210938,-12.390625,0.33135986,0.71813965,-0.20819092,0.57543945,2378310,1067.2793,1021.8142,37.61328,-7.9960938,-15.863281,-0.37982178,-0.7249756,-0.22998047,0.52648926
2378300.0,1072.3826,1034.4746,-35.39453,-4.6835938,-19.59375,0.27783203,0.68743896,-0.24035645,0.6264038,2378330,1060.449,1044.7778,28.839844,-8.9921875,-19.464844,-0.42504883,-0.6749878,-0.24023438,0.55322266
2378325.0,1063.2537,1026.1902,-41.94922,2.2890625,-18.480469,0.20098877,0.66534424,-0.24090576,0.67736816,2378350,1051.491,1042.7212,30.066406,-9.8359375,-13.792969,-0.46722412,-0.62457275,-0.25811768,0.57006836
2378340.0,1053.4675,1026.7554,-27.660156,0.02734375,-24.113281,0.115112305,0.63568115,-0.23382568,0.72662354,2378370,1047.6804,1038.4502,32.20703,-14.125,-15.402344,-0.48388672,-0.5842285,-0.2565918,0.598938
2378360.0,1045.4431,1028.2751,-36.39453,0.640625,-26.949219,0.026977539,0.609375,-0.21795654,0.76190186,2378395,1022.35156,1042.2112,29.296875,-0.10546875,-31.035156,-0.49316406,-0.5286255,-0.24328613,0.64660645
2378380.0,992.46313,1034.512,-26.390625,9.910156,-24.152344,-0.11352539,0.572876,-0.18804932,0.78967285,2378410,1016.2964,1044.1396,26.730469,2.0039062,-27.234375,-0.49505615,-0.4439087,-0.23773193,0.70806885
2378400.0,981.3823,1028.5134,-31.832031,-1.8867188,-17.21875,-0.28094482,0.5291748,-0.17791748,0.78063965,2378430,1008.7517,1034.742,26.117188,5.5273438,-36.66797,-0.4862671,-0.3359375,-0.24920654,0.7671509
2378420.0,978.322,1009.7571,-35.625,16.003906,-37.097656,-0.38024902,0.4734497,-0.19946289,0.76904297,2378450,1009.23535,1014.1904,30.945312,6.5976562,-56.125,-0.47131348,-0.19012451,-0.2866211,0.8121338
2378440.0,1011.7556,1009.7307,-25.050781,23.128906,-46.066406,-0.46032715,0.38226318,-0.21258545,0.772522,2378475,1008.4077,1010.5244,34.58203,-6.15625,-33.5625,-0.47216797,0.016601562,-0.30725098,0.8260498
2378465.0,1008.999,1009.7185,-20.992188,-8.859375,-12.660156,-0.54071045,0.2720337,-0.23742676,0.7597656,2378490,1008.5288,1011.0066,24.316406,-6.5039062,-33.066406,-0.48413086,0.2241211,-0.26379395,0.8036499
2378480.0,1009.4331,1010.1692,-34.820312,-3.609375,-18.941406,-0.5997925,0.21582031,-0.31433105,0.7034912,2378510,1009.39185,1011.1304,11.488281,-3.515625,-11.417969,-0.5064087,0.33099365,-0.18756104,0.7738037
2378500.0,1009.61597,1009.2395,-29.957031,-5.3359375,-19.019531,-0.59765625,0.19799805,-0.41186523,0.65875244,2378530,1009.1963,1010.7488,14.816406,4.6835938,-2.5703125,-0.53967285,0.322937,-0.119628906,0.7682495
2378520.0,1009.88574,1008.7207,-43.59375,0.18359375,-18.289062,-0.5582886,0.199646,-0.52038574,0.614563,2378555,1008.75854,1010.82275,39.296875,1.0429688,-13.7578125,-0.6034546,0.24609375,-0.05834961,0.7562256
2378540.0,1009.9851,1008.7634,-51.29297,7.421875,-5.3789062,-0.5126953,0.23474121,-0.6188965,0.54681396,2378570,1008.67236,1010.70264,52.285156,-3.3984375,-20.613281,-0.70440674,0.15789795,0.0041503906,0.69195557
2378560.0,1009.9343,1008.7175,-50.335938,-1.8085938,2.359375,-0.49273682,0.31341553,-0.66729736,0.46221924,2378590,1008.822,1010.7888,54.808594,-11.828125,-17.929688,-0.80303955,0.08520508,0.053955078,0.5873413
2378580.0,1009.95825,1008.9553,-60.710938,-14.7578125,6.53125,-0.50177,0.446167,-0.6549072,0.3466797,2378610,1008.84717,1011.0913,54.277344,-21.171875,-13.066406,-0.87280273,-0.0033569336,0.09643555,0.4784546
2378605.0,1009.79443,1008.5615,-60.94922,-27.4375,-2.0859375,-0.5180664,0.5845947,-0.5787964,0.2341919,2378635,1008.40137,1010.9077,70.39844,-23.511719,-11.1875,-0.9102173,-0.11694336,0.13391113,0.37402344
2378620.0,1009.82886,1007.5239,-62.515625,-34.83203,-3.7734375,-0.4984131,0.71899414,-0.46374512,0.13995361,2378650,1008.4475,1011.10693,76.640625,-28.144531,-10.613281,-0.92559814,-0.24157715,0.15142822,0.2489624
2378640.0,1009.9341,1007.6775,-64.08984,-42.148438,-0.8203125,-0.4326172,0.8371582,-0.32543945,0.07788086,2378670,1008.81177,1011.06323,77.296875,-35.882812,-4.21875,-0.91625977,-0.34924316,0.13244629,0.14465332
2378660.0,1009.8042,1007.7405,-60.367188,-40.195312,-2.046875,-0.3444214,0.91741943,-0.19207764,0.053100586,2378690,1009.0637,1011.7036,70.40234,-34.695312,1.4140625,-0.88604736,-0.4451294,0.097961426,0.08502197
2378680.0,1009.9136,1007.7407,-50.21875,-31.84375,-2.0078125,-0.24291992,0.9658203,-0.07330322,0.05291748,2378715,1009.1926,1011.5625,57.296875,-31.476562,7.5820312,-0.8362427,-0.5438843,0.055358887,0.042114258
2378700.0,1010.02637,1007.82104,-47.421875,-29.8125,0.7109375,-0.15234375,0.9868164,0.010620117,0.053894043,2378730,1009.31934,1011.21826,50.789062,-34.847656,11.910156,-0.7913208,-0.61065674,0.022399902,0.018798828
2378720.0,1010.11865,1008.14136,-45.507812,-35.828125,2.1679688,-0.056884766,0.9946289,0.072143555,0.04736328,2378750,1009.62964,1011.57324,43.589844,-41.32422,15.128906,-0.7341919,-0.678772,-0.015197754,0.0028076172
2378745.0,1010.0647,1008.2095,-29.417969,-46.820312,1.9726562,0.03668213,0.9949341,0.084472656,0.03967285,2378775,1009.67163,1011.91455,31.863281,-49.710938,17.847656,-0.67840576,-0.73327637,-0.044555664,0.0065307617
2378760.0,1009.8579,1008.4248,-17.8125,-48.58203,-1.203125,0.11639404,0.9908447,0.062194824,0.028808594,2378795,1009.4861,1012.09204,7.2695312,-58.410156,-0.5390625,-0.62939453,-0.7737427,-0.061523438,0.037902832
2378780.0,1009.7434,1008.4905,-7.2773438,-52.796875,-9.7109375,0.17303467,0.9846802,0.01965332,0.011047363,2378810,1009.4243,1012.0388,-8.628906,-51.36328,-7.2421875,-0.60894775,-0.78912354,-0.044555664,0.06732178
2378800.0,1009.6758,1008.5669,0.73046875,-47.246094,-14.6875,-0.21661377,-0.9760742,0.01586914,0.011352539,2378830,1009.46875,1012.0029,-18.585938,-47.60547,-8.5078125,-0.59503174,-0.7996216,0.017333984,0.07867432
2378820.0,1009.92993,1008.58105,12.2578125,-44.328125,-4.6523438,-0.24536133,-0.9682617,0.013427734,0.045959473,2378855,1014.4895,1011.968,-18.933594,-50.402344,-11.265625,-0.5836792,-0.8026123,0.10205078,0.06878662
2378840.0,1011.4385,1008.54614,14.671875,-49.121094,8.984375,-0.26245117,-0.9613037,0.010559082,0.08276367,2378875,1011.3645,1011.9175,-13.761719,-43.089844,-11.496094,-0.57733154,-0.7960205,0.17614746,0.044921875
2378860.0,1031.5566,1008.4319,9.808594,-44.0625,10.480469,-0.2662964,-0.95684814,0.017028809,0.11517334,2378890,1015.0735,1011.72974,-20.808594,-32.628906,-2.0351562,-0.5753174,-0.79089355,0.20690918,0.027282715
2378885.0,1034.415,1008.7666,9.042969,-19.585938,-3.4257812,-0.2598877,-0.9550781,0.025634766,0.14013672,2378910,1035.032,1014.6394,-12.3828125,-21.9375,1.296875,0.58013916,0.7789917,-0.23687744,0.022827148
2378900.0,1036.6096,1008.1946,2.4140625,-16.476562,-2.9296875,-0.2581787,-0.9456177,0.04425049,0.1928711,2378935,1031.468,1011.14404,-1.3476562,-26.0,-5.671875,0.5733032,0.7624512,-0.29327393,0.06323242
2378920.0,1038.5325,1007.2366,0.078125,-10.234375,-1.78125,-0.25634766,-0.9342041,0.070373535,0.23797607,2378955,1033.3984,1010.9514,-0.12109375,-13.972656,-5.5195312,0.5595093,0.73773193,-0.36151123,0.109558105
2378940.0,1039.0027,1004.53394,0.23046875,-8.1640625,-3.5039062,-0.25305176,-0.92510986,0.08129883,0.27111816,2378970,1034.2759,1009.5232,2.2148438,-9.8359375,-3.3359375,0.5470581,0.7202759,-0.40405273,0.13635254
2378960.0,1038.2996,1006.85767,1.6875,-3.2265625,-6.296875,-0.2477417,-0.92089844,0.08807373,0.28771973,2378990,1034.998,1010.36597,-0.4296875,-5.2773438,-4.3320312,0.53686523,0.7070923,-0.432312,0.15759277
2378980.0,1037.7319,1007.5801,2.3007812,-0.96875,-8.1015625,-0.2434082,-0.91973877,0.09490967,0.29296875,2379015,1034.1211,1009.7893,-0.69921875,-4.3242188,-3.453125,0.52874756,0.69976807,-0.45025635,0.1673584
2379000.0,1036.9641,1007.8716,1.1523438,-0.4296875,-8.832031,-0.23931885,-0.9206543,0.10601807,0.28961182,2379035,1032.5923,1010.23926,-1.5390625,-2.8632812,-7.0195312,0.5263672,0.6925659,-0.4650879,0.16436768
2379020.0,1036.7568,1008.8867,0.99609375,0.79296875,-9.1328125,-0.23736572,-0.9223633,0.11706543,0.28149414,2379055,1032.1497,1010.48706,-2.078125,-3.359375,-8.734375,0.5285034,0.6906128,-0.46832275,0.15637207
2379040.0,1037.6895,1009.87866,0.34765625,2.25,-8.9375,-0.2409668,-0.92474365,0.13043213,0.2642212,2379070,1034.3076,1013.9929,-2.9179688,-2.9414062,-8.511719,0.53479004,0.69488525,-0.4588623,0.14343262
2379060.0,1039.2739,1010.2761,0.57421875,0.79296875,-8.832031,-0.24798584,-0.92852783,0.14196777,0.23693848,2379095,1036.3955,1017.18896,-5.2578125,-6.5390625,-8.234375,0.545166,0.7043457,-0.43756104,0.123413086
2379080.0,1041.3528,1010.4861,-0.11328125,-2.6914062,-7.6015625,-0.255188,-0.93341064,0.15240479,0.20098877,2379115,1050.926,1025.144,-6.9804688,-7.6875,-3.8359375,0.56207275,0.71569824,-0.40319824,0.096069336
2379100.0,1057.1997,1046.2644,-0.421875,-4.953125,-4.4609375,-0.26330566,-0.93621826,0.1663208,0.16290283,2379135,1049.5986,1019.2283,-3.3007812,-7.8867188,0.03515625,0.5703125,0.72436523,-0.3772583,0.08795166
2379120.0,1053.6768,1015.90454,-10.375,3.7460938,6.9179688,-0.2736206,-0.9345093,0.17486572,0.14569092,2379155,1050.3416,1019.5315,-3.53125,-10.871094,0.6484375,0.57025146,0.72613525,-0.37768555,0.07006836
2379140.0,1061.1648,1017.8845,-8.765625,-0.546875,-2.546875,-0.29449463,-0.92718506,0.19067383,0.1315918,2379175,1051.2207,1022.66626,3.7460938,-5.2773438,-0.46484375,0.56170654,0.72613525,-0.39471436,0.036987305
2379160.0,1064.0073,1022.4304,-14.2109375,5.0078125,-6.6054688,-0.32055664,-0.91778564,0.20941162,0.10498047,2379195,1054.2715,1018.34937,8.535156,-2.328125,-6.3242188,0.5533447,0.7346802,-0.3925171,0.0012207031
2379180.0,1070.1038,1035.0066,-19.191406,1.9453125,-12.7734375,-0.3447876,-0.9135132,0.20599365,0.064575195,2379215,1055.8347,1021.05444,11.636719,-1.0234375,-9.464844,-0.54870605,-0.7485962,0.3713379,0.026367188
2379200.0,1073.0469,1044.6064,-18.199219,4.1640625,-12.660156,-0.36224365,-0.91101074,0.19604492,0.018615723,2379235,1060.2009,1037.925,15.734375,-2.2890625,-11.496094,-0.54418945,-0.7669678,0.33441162,0.061401367
2379220.0,1075.8235,1048.437,-22.105469,10.5625,-12.4296875,0.38739014,0.89801025,-0.20562744,0.035583496,2379255,1063.4001,1041.6211,20.789062,-0.71875,-8.8125,-0.5371094,-0.7838135,0.2937622,0.103881836
2379240.0,1079.5208,1042.8281,-24.558594,7.8828125,-14.230469,0.4194336,0.87683105,-0.20965576,0.10638428,2379275,1070.6294,1042.823,26.464844,3.5742188,-10.230469,-0.52178955,-0.8022461,0.24884033,0.14904785
2379260.0,1087.7622,1048.0535,-24.667969,6.3867188,-16.566406,0.43579102,0.86187744,-0.18969727,0.17687988,2379295,1076.2554,1043.9668,29.445312,3.9179688,-10.613281,-0.49829102,-0.8231201,0.19128418,0.19384766
2379280.0,1090.6179,1048.3489,-30.035156,2.7851562,-13.730469,0.4439087,0.84161377,-0.16204834,0.26135254,2379315,1085.061,1038.1409,32.285156,5.296875,-11.6875,-0.47143555,-0.8428345,0.117492676,0.23150635
2379300.0,1093.7109,1048.4248,-32.25,7.0390625,-14.3828125,0.44622803,0.8157959,-0.13409424,0.3425293,2379335,1086.398,1045.0393,31.824219,3.8789062,-20.460938,-0.4420166,-0.8569336,0.03552246,0.26275635
2379320.0,1095.855,1051.1069,-36.234375,15.3125,-20.089844,0.4407959,0.7866211,-0.112854004,0.41741943,2379355,1088.9609,1052.8269,32.015625,7.0976562,-23.90625,-0.41485596,-0.8623657,-0.055847168,0.284729
2379340.0,1090.7534,1049.2502,-29.6875,11.253906,-21.8125,0.43121338,0.7555542,-0.08770752,0.48535156,2379375,1088.0671,1056.7827,30.59375,7.5546875,-28.121094,-0.39562988,-0.8526001,-0.14782715,0.30773926
2379360.0,1089.5813,1048.5613,-26.351562,20.484375,-25.605469,0.42016602,0.72857666,-0.058776855,0.5377197,2379395,1086.27,1047.3379,26.769531,5.9101562,-27.625,-0.3814087,-0.8344116,-0.22528076,0.32800293
2379380.0,1085.6775,1032.436,-14.441406,-3.9921875,-16.984375,0.39819336,0.7062378,-0.04058838,0.5840454,2379415,1086.3088,1034.1287,15.542969,-5.390625,-15.7421875,-0.37164307,-0.81414795,-0.2824707,0.3453369
2379395.0,1087.9849,1036.2888,-6.359375,-5.71875,-6.3398438,0.37286377,0.69488525,-0.03314209,0.6140137,2379435,1085.2812,1028.8318,5.2382812,-12.359375,-9.234375,-0.3786621,-0.7824707,-0.33013916,0.3678589
2379415.0,1088.2903,1025.3862,7.4726562,-31.648438,-0.171875,0.32647705,0.68829346,-0.03149414,0.6470337,2379455,1086.9917,1015.81274,4.28125,-25.003906,-4.484375,-0.38989258,-0.7546387,-0.34448242,0.3998413
2379440.0,1086.0974,1026.7405,-1.7617188,-26.015625,2.4335938,0.29968262,0.6954346,-0.059936523,0.6503906,2379475,1080.563,1015.66626,7.4609375,-24.511719,1.0703125,-0.41174316,-0.7344971,-0.32202148,0.43273926
2379455.0,1084.5708,1038.905,-24.320312,-19.429688,-11.855469,0.29504395,0.7050781,-0.13604736,0.6303711,2379495,1078.2161,1022.03296,30.753906,-14.8515625,-17.128906,-0.418396,-0.72924805,-0.26098633,0.47442627
2379475.0,1080.3628,1038.8203,-37.304688,-4.9140625,-12.390625,0.33789062,0.69818115,-0.20202637,0.5979614,2379515,1070.9539,1030.5996,31.675781,-7.0,-21.648438,-0.4109497,-0.7160034,-0.2144165,0.52197266
2379495.0,1077.2566,1023.88574,-38.648438,4.8164062,-8.253906,0.35284424,0.6734009,-0.2390747,0.60406494,2379535,1067.1609,1040.7556,26.648438,-10.410156,-20.726562,-0.4165039,-0.6810913,-0.20776367,0.56518555
2379520.0,1068.7131,1028.6917,-23.597656,3.2851562,-27.789062,0.29974365,0.6314697,-0.26208496,0.6654053,2379555,1061.7063,1042.0786,28.453125,-7.9179688,-18.699219,-0.43792725,-0.63482666,-0.22650146,0.59490967
2379535.0,1062.1792,1031.834,-27.695312,-1.9257812,-26.871094,0.23596191,0.6166382,-0.26080322,0.7043457,2379575,1052.3792,1035.7073,24.277344,-20.636719,-22.796875,-0.4537964,-0.5855713,-0.25238037,0.6224365
2379555.0,1059.6216,1026.7485,-22.636719,-1.7734375,-25.496094,0.13555908,0.6019287,-0.24951172,0.7463989,2379595,1031.5366,1038.781,11.636719,-23.703125,-27.699219,-0.45483398,-0.5345459,-0.25604248,0.66467285
2379575.0,1040.7461,1033.6814,-25.550781,-4.8359375,-27.25,0.0015869141,0.576416,-0.23815918,0.78167725,2379615,1016.9441,1049.126,23.246094,-3.5898438,-33.10547,-0.4560547,-0.47851562,-0.24731445,0.708374
2379595.0,1011.2378,1027.1921,-23.175781,7.6132812,-2.1640625,-0.15008545,0.54644775,-0.22155762,0.7935791,2379635,1010.08545,1038.0039,17.421875,10.890625,-28.738281,-0.48693848,-0.37652588,-0.25994873,0.74401855
2379615.0,969.42944,1026.1487,-20.261719,5.5429688,-14.574219,-0.3125,0.5177002,-0.20806885,0.7687988,2379655,1007.39087,1028.7039,24.585938,7.0976562,-31.035156,-0.48779297,-0.26470947,-0.28631592,0.78100586
2379635.0,987.9419,1020.2759,-27.886719,-14.605469,-23.230469,-0.40802002,0.42547607,-0.21435547,0.7788086,2379675,1008.9133,1013.1455,11.714844,8.78125,-40.878906,-0.4864502,-0.16625977,-0.32177734,0.795105
2379660.0,1013.4453,1008.2302,-27.808594,19.910156,-38.515625,-0.3944702,0.36798096,-0.27331543,0.7963867,2379695,1008.2864,1013.68604,13.707031,-7.9960938,-51.48828,-0.5150757,0.00018310547,-0.35412598,0.7805786
2379675.0,1008.4839,1016.7207,-32.789062,10.6796875,-13.464844,-0.44207764,0.28234863,-0.29803467,0.7975464,2379715,1009.0596,1011.88184,17.804688,-7.1523438,-31.761719,-0.5687866,0.16186523,-0.33514404,0.7334595
2379695.0,1009.35815,1010.2273,-22.949219,-5.984375,-9.519531,-0.52075195,0.22259521,-0.3404541,0.7505493,2379735,1009.6787,1010.95703,7.8867188,-4.28125,3.2890625,-0.6143799,0.28076172,-0.28857422,0.67852783
2379715.0,1009.9087,1009.6897,-27.464844,-3.265625,-15.4921875,-0.57507324,0.19073486,-0.38653564,0.6953125,2379755,1009.4407,1011.29834,14.589844,-2.7109375,2.7539062,-0.6497803,0.29406738,-0.23498535,0.6604004
2379735.0,1009.4922,1009.1282,-34.125,-3.609375,-14.0390625,-0.58447266,0.20092773,-0.44451904,0.64837646,2379775,1008.9497,1010.77124,27.152344,-7.4609375,-1.1132812,-0.6765747,0.24908447,-0.17144775,0.67144775
2379755.0,1010.1394,1008.76074,-35.39453,-4.375,-14.84375,-0.5581665,0.2420044,-0.51849365,0.6008911,2379795,1008.97363,1010.9514,37.722656,-8.2265625,-9.847656,-0.6980591,0.18139648,-0.09790039,0.68573
2379775.0,1009.7202,1008.7864,-40.945312,-10.660156,-11.855469,-0.50579834,0.32061768,-0.59594727,0.5350342,2379815,1009.0332,1010.92944,40.9375,-6.921875,-10.652344,-0.73687744,0.10180664,0.001953125,0.6682739
2379800.0,1010.1189,1008.5886,-64.62891,-14.566406,-1.0898438,-0.45666504,0.4439087,-0.64227295,0.42645264,2379835,1008.96436,1010.90845,49.210938,-15.2734375,-11.7265625,-0.78149414,0.023132324,0.103271484,0.61486816
2379815.0,1009.60815,1008.4038,-68.53516,-18.242188,-3.9648438,-0.4326172,0.586792,-0.6207886,0.28833008,2379855,1008.72046,1010.7639,61.4375,-22.898438,-16.707031,-0.8286133,-0.072509766,0.20324707,0.5164795
2379835.0,1009.5842,1008.4751,-69.22266,-28.011719,-3.8867188,-0.4321289,0.71484375,-0.52508545,0.16308594,2379875,1008.69727,1011.0078,69.82031,-29.679688,-16.820312,-0.85980225,-0.17590332,0.27130127,0.39520264
2379855.0,1009.66235,1008.6572,-65.421875,-32.609375,-5.1523438,-0.42175293,0.8182373,-0.38208008,0.08111572,2379900,1008.87695,1010.8425,68.06641,-27.992188,-8.203125,-0.8699951,-0.26623535,0.29699707,0.28979492
2379875.0,1009.8135,1008.82153,-52.63672,-28.128906,-0.015625,-0.3717041,0.89697266,-0.2364502,0.03692627,2379915,1008.9956,1010.7815,62.546875,-26.34375,-4.21875,-0.8685913,-0.35638428,0.286438,0.190979
2379895.0,1009.9197,1008.8723,-48.652344,-25.789062,-1.5898438,-0.29077148,0.947876,-0.1293335,0.017211914,2379935,1009.2256,1012.1277,59.10547,-26.191406,-0.6171875,-0.854126,-0.44311523,0.25097656,0.10522461
2379915.0,1009.94507,1008.9702,-47.160156,-24.910156,-0.59375,-0.19396973,0.9796753,-0.051696777,0.0012817383,2379955,1009.38086,1011.5227,57.335938,-27.722656,5.8554688,-0.8241577,-0.52685547,0.20373535,0.04046631
2379940.0,1009.9309,1009.23,-46.42578,-30.578125,-1.0117188,0.10089111,-0.994812,0.007507324,0.008361816,2379975,1009.59717,1011.75977,53.660156,-30.214844,8.230469,-0.7832031,-0.60180664,0.15588379,0.012634277
2379955.0,1010.0271,1009.28467,-40.484375,-32.80078,3.3554688,0.009216309,-0.9998169,-0.010131836,0.01184082,2379995,1009.72876,1011.3076,35.88672,-41.246094,16.277344,-0.7348633,-0.6710205,0.09857178,0.0059814453
2379975.0,1009.97925,1009.78906,-30.414062,-35.976562,4.2734375,-0.0748291,-0.9968262,-0.015563965,0.021240234,2380015,1009.7761,1011.989,20.410156,-44.273438,11.910156,-0.69592285,-0.71710205,0.036499023,0.011352539
2379995.0,1009.9592,1009.96094,-19.917969,-40.6875,2.5859375,-0.13830566,-0.98883057,0.0075683594,0.055236816,2380035,1009.8364,1011.97,4.6640625,-49.101562,6.546875,-0.66937256,-0.7424927,0.0178833,0.019592285
2380015.0,1010.0398,1010.199,-4.59375,-49.695312,5.2304688,-0.19537354,-0.9737549,0.064331055,0.09741211,2380055,1009.77515,1011.93286,-5.484375,-55.847656,-2.0742188,-0.6394043,-0.7609253,0.10498047,0.033447266
2380035.0,1009.95703,1010.2925,4.1757812,-41.57422,7.3359375,-0.23706055,-0.9602051,0.08654785,0.119384766,2380075,1009.761,1011.9756,-15.828125,-41.402344,-0.921875,-0.616272,-0.7684326,0.16851807,0.03668213
2380055.0,1009.92163,1010.39233,7.125,-41.453125,3.390625,-0.26715088,-0.9550171,0.05230713,0.11791992,2380095,1009.9558,1012.20874,-25.867188,-44.65625,3.3671875,-0.6043701,-0.7727051,0.19335938,0.016052246
2380080.0,1010.2883,1011.719,10.917969,-54.171875,7.2226562,-0.28302002,-0.9494629,0.030273438,0.13250732,2380115,1009.7378,1012.22974,-24.027344,-57.21875,4.4414062,-0.5946655,-0.7746582,0.21496582,0.0017089844
2380095.0,1052.6282,1009.57886,1.8007812,-41.914062,-25.339844,-0.28546143,-0.9482422,0.030395508,0.13574219,2380135,1027.2026,1011.68115,-20.730469,-33.929688,-3.5273438,0.5999756,0.7659302,-0.22979736,0.023803711
2380115.0,1035.7285,1007.10864,11.339844,-24.871094,-3.7734375,-0.2774048,-0.9429321,0.03125,0.18170166,2380155,1040.7053,1012.3335,-7.0195312,-20.910156,-4.140625,0.6013794,0.7507324,-0.26757812,0.056274414
2380135.0,1036.9358,1008.3977,3.71875,-15.2578125,-6.4140625,-0.27355957,-0.9312134,0.048034668,0.23608398,2380175,1030.2249,1010.0845,-2.9960938,-13.207031,-6.859375,0.5899658,0.72772217,-0.33831787,0.08874512
2380155.0,1039.2227,1007.3335,-0.53515625,-6.3671875,-3.2734375,-0.26757812,-0.91864014,0.06732178,0.28271484,2380200,1030.06,1011.7029,2.5976562,-8.4921875,-4.7929688,0.5736084,0.70269775,-0.40490723,0.115356445
2380175.0,1038.4314,1007.9453,-0.34375,-2.7695312,-3.1992188,-0.26098633,-0.91137695,0.075805664,0.30914307,2380215,1031.4756,1010.57104,1.5625,-3.5898438,-2.6484375,0.5570679,0.6834717,-0.45159912,0.1362915
2380195.0,1036.853,1007.52783,2.0703125,-2.15625,-7.2226562,-0.25213623,-0.9102783,0.07757568,0.3190918,2380235,1032.6833,1010.3755,-0.31640625,-3.359375,-3.9882812,0.54833984,0.6751709,-0.46948242,0.15167236
2380220.0,1036.0679,1007.79126,3.1054688,-2.1914062,-8.9375,-0.24230957,-0.91186523,0.081848145,0.32104492,2380255,1032.2324,1010.958,-0.7734375,-2.5195312,-4.984375,0.54504395,0.67370605,-0.47296143,0.15911865
2380235.0,1036.354,1007.9978,2.7226562,-0.62109375,-7.4101562,-0.23413086,-0.9145508,0.09320068,0.31628418,2380280,1031.802,1010.82153,-2.3046875,-4.203125,-6.7851562,0.5477295,0.67529297,-0.46759033,0.15917969
2380255.0,1036.7708,1008.77856,2.875,-0.1640625,-7.2617188,-0.2310791,-0.9180298,0.10595703,0.30426025,2380295,1032.0447,1012.08203,-1.8085938,-3.4765625,-6.2460938,0.5548096,0.67626953,-0.46124268,0.14837646
2380275.0,1037.4429,1009.3755,2.2617188,-0.046875,-7.2617188,-0.23266602,-0.9219971,0.12213135,0.2843628,2380315,1032.3257,1012.4336,-3.1484375,-4.6640625,-5.828125,0.5605469,0.6786499,-0.45648193,0.12994385
2380295.0,1038.1167,1009.6985,1.265625,-1.9648438,-7.5234375,-0.23590088,-0.927063,0.14208984,0.2543335,2380335,1032.7537,1012.1643,-5.4101562,-5.9609375,-5.5976562,0.5635376,0.68426514,-0.45092773,0.10412598
2380315.0,1040.3494,1011.9966,0.23046875,-4.953125,-5.6875,-0.24078369,-0.9324341,0.16357422,0.21398926,2380360,1034.366,1016.4038,-3.8398438,-8.800781,-5.40625,0.5718384,0.69104004,-0.43621826,0.07196045
2380335.0,1070.2585,1028.071,0.15625,-6.671875,-2.5820312,-0.24731445,-0.9355469,0.17572021,0.18066406,2380375,1044.625,1023.001,-5.2578125,-9.378906,-2.4179688,0.5842285,0.7003174,-0.40789795,0.0435791
2380360.0,1057.3184,1014.17773,-10.7578125,1.5234375,-3.234375,-0.25964355,-0.93304443,0.18664551,0.16467285,2380395,1048.3726,1019.62305,1.4101562,-7.953125,4.4023438,0.583313,0.7088623,-0.39501953,0.034179688
